Timestamp, Left Stick X, Left Stick Y, Right Stick X, Right Stick Y, D-Pad Up, D-Pad Right,D-Pad Down, D-Pad Left, Button North, Button East, Button South, Button West, L1, R1, L2, R2, L3, R3,Gyroscope X, Gyroscope Y, Gyroscope Z, Accelerometer X, Accelerometer Y, Accelerometer Z,Touch 1, Touch 2, Touch 1 Pos X, Touch 1 Pos Y, Touch 2 Pos X, Touch 2 Pos Y
0,-0.3825584,-0.9662558,-0.1173616,0.1129329,0,0,0,0,0,0,0,0,0,0,0,1,0,0,0,0,0,0.0513916,-0.833252,-0.3924561,0,0,0,0,0,0
0.01,-0.3592638,-0.9830405,-0.1099989,0.09339525,0,0,0,0,0,0,0,0,0,0,0,1,0,0,0,0,0,0.08654785,-0.8669434,-0.3266602,0,0,0,0,0,0
0.02,-0.3275254,-0.9904684,-0.08971035,0.0490868,0,0,0,0,0,0,0,0,0,0,0,1,0,0,0,0,0,0.05456543,-0.8786621,-0.2219238,0,0,0,0,0,0
0.03,-0.2802319,-1,-0.07173301,0.01488798,0,0,0,0,0,0,0,0,0,0,0,1,0,0,0,0,0,0.04431152,-0.9445801,-0.2167969,0,0,0,0,0,0
0.04,-0.2483314,-1,-0.04959631,0,0,0,0,0,0,0,0,0,0,0,0,1,0,0,0,0,0,-0.01550293,-0.9718018,-0.2839355,0,0,0,0,0,0
0.05,-0.2244794,-1,-0.01315794,-0.0009627763,0,0,0,0,0,0,0,0,0,0,0,0,0,0,0,0,0,-0.05688477,-0.9846191,-0.2626953,0,0,0,0,0,0
0.05999999,-0.2165419,-1,0,0,0,0,0,0,0,0,0,0,0,0,0,0,0,0,0,0,0,-0.04614258,-1.108887,-0.2467041,0,0,0,0,0,0
0.06999999,-0.2165419,-1,0,0,0,0,0,0,0,0,0,0,0,0,0,0,0,0,0,0,0,-0.1174316,-0.9749756,-0.1290283,0,0,0,0,0,0
0.07999999,-0.2165419,-1,0,0,0,0,0,0,0,0,0,0,0,0,0,0,0,0,0,0,0,-0.1488037,-1.035522,-0.138916,0,0,0,0,0,0
0.08999999,-0.2086106,-1,0,0,0,0,0,0,0,0,0,0,0,0,0,0,0,0,0,0,0,-0.04492188,-1.107178,-0.0826416,0,0,0,0,0,0
0.09999999,-0.1927661,-1,0,0,0,0,0,0,0,0,0,0,0,0,0,0,0,0,0,0,0,-0.105835,-1.112793,-0.1677246,0,0,0,0,0,0
0.11,-0.1690417,-1,0,0,0,0,0,0,0,0,0,0,0,0,0,0,0,0,0,0,0,-0.06958008,-1.128418,-0.1413574,0,0,0,0,0,0
0.12,-0.113854,-1,0,0,0,0,0,0,0,0,0,0,0,0,0,1,0,0,0,0,0,-0.1140137,-1.093262,-0.07116699,0,0,0,0,0,0
0.13,-0.01960851,-1,0.01355039,0.03427453,0,0,0,0,0,0,0,0,0,0,0,1,0,0,-0.1141862,0.05098011,0,-0.1247559,-0.9188232,0.06152344,0,0,0,0,0,0
0.14,0.05099206,-1,0.03771087,0.1059496,0,0,0,0,0,0,0,0,0,0,0,1,0,0,0,0,0,-0.1098633,-1.030029,-0.1345215,0,0,0,0,0,0
0.15,0.1927661,-1,0.05437363,0.1773053,0,0,0,0,0,0,0,0,0,0,0,1,0,0,0,0,0,0.1313477,-1.013062,-0.5070801,0,0,0,0,0,0
0.16,0.3042357,-1,0.05678363,0.1950394,0,0,0,0,0,0,0,0,0,0,0,1,0,0,0,0,0,0.04602051,-0.8668213,-0.4396973,0,0,0,0,0,0
0.17,0.336352,-1,0.05155031,0.1939274,0,0,0,0,0,0,0,0,0,0,0,1,0,0,0,0,0,0.08398438,-0.8521729,-0.4302979,0,0,0,0,0,0
0.18,0.3847782,-1,0.01197872,0.07054136,0,0,0,0,0,0,0,0,0,0,0,1,0,0,0,0,0,0.1224365,-0.8372803,-0.329834,0,0,0,0,0,0
0.19,0.433522,-1,0,0,0,0,0,0,0,0,0,0,0,0,0,1,0,0,0.08146932,-0.008496801,0.02649003,0.08337402,-0.9534912,-0.1318359,0,0,0,0,0,0
0.2,0.4908059,-1,0,0,0,0,0,0,0,0,0,0,0,0,0,1,0,0,0,0,0,0.0715332,-0.9475098,-0.1744385,0,0,0,0,0,0
0.21,0.5485454,-1,0,0,0,0,0,0,0,0,0,0,0,0,0,1,0,0,0,0,0,-0.004394531,-0.9146729,-0.2944336,0,0,0,0,0,0
0.22,0.5651261,-1,-0.02565748,-0.005370171,0,0,0,0,0,0,0,0,0,0,0,0,0,0,0,0,0,-0.07287598,-0.9609375,-0.270874,0,0,0,0,0,0
0.23,0.5651261,-1,-0.2189449,-0.08705039,0,0,0,0,0,0,0,0,0,0,0,0,0,0,0,0,0,-0.09790039,-1.098389,-0.2415771,0,0,0,0,0,0
0.24,0.5320019,-1,-0.4035335,-0.1607572,0,0,0,0,0,0,0,0,0,0,0,0,0,0,0,0,0,-0.1645508,-0.9627686,-0.1184082,0,0,0,0,0,0
0.25,0.4825947,-1,-0.5571364,-0.1880779,0,0,0,0,0,0,0,0,0,0,0,0,0,0,0,0,0,-0.07214355,-1.127441,-0.07971191,0,0,0,0,0,0
0.26,0.4253754,-1,-0.7111543,-0.197336,0,0,0,0,0,0,0,0,0,0,0,0,0,0,-0.0899588,-0.02174004,-0.01574279,-0.0657959,-1.141235,-0.2316895,0,0,0,0,0,0
0.27,0.4091095,-1,-0.8012227,-0.1784714,0,0,0,0,0,0,0,0,0,0,0,1,0,0,0,0,0,-0.05969238,-1.144653,-0.2186279,0,0,0,0,0,0
0.28,0.3847782,-1,-0.8528751,-0.06501739,0,0,0,0,0,0,0,0,0,0,0,1,0,0,0,0,0,-0.07189941,-1.042603,-0.1610107,0,0,0,0,0,0
0.29,0.3766855,-1,-0.8906478,0.1118129,0,0,0,0,0,0,0,0,0,0,0,1,0,0,-0.09826936,0.02468268,-0.02491336,-0.2141113,-0.9771729,-0.05432129,0,0,0,0,0,0
0.3,0.3766855,-1,-0.9228778,0.2453219,0,0,0,0,0,0,0,0,0,0,0,1,0,0,0,0,0,0.009155273,-0.9975586,-0.3057861,0,0,0,0,0,0
0.31,0.3766855,-1,-0.9330987,0.4291466,0,0,0,0,0,0,0,0,0,0,0,1,0,0,0,0,0,0.001098633,-0.8953857,-0.4643555,0,0,0,0,0,0
0.32,0.3686016,-1,-0.9389785,0.5190135,0,0,0,0,0,0,0,0,0,0,0,1,0,0,0.02675879,-0.03344849,-0.02099181,0.01708984,-0.8935547,-0.3725586,0,0,0,0,0,0
0.33,0.3524597,-1,-0.9406446,0.5437481,0,0,0,0,0,0,0,0,0,0,0,1,0,0,0,0,0,0.01245117,-0.9447021,-0.2354736,0,0,0,0,0,0
0.3399999,0.3283107,-1,-0.9056615,0.5497247,0,0,0,0,0,0,0,0,0,0,0,1,0,0,0,0,0,0.04199219,-1.02478,-0.1352539,0,0,0,0,0,0
0.3499999,0.3042357,-1,-0.8525546,0.5461064,0,0,0,0,0,0,0,0,0,0,0,1,0,0,0,0,0,0.005859375,-1.049561,-0.1477051,0,0,0,0,0,0
0.3599999,0.2882255,-1,-0.8052488,0.5018218,0,0,0,0,0,0,0,0,0,0,0,1,0,0,0,0,0,0.02355957,-0.9725342,-0.2530518,0,0,0,0,0,0
0.3699999,0.2642672,-1,-0.7279308,0.415416,0,0,0,0,0,0,0,0,0,0,0,1,0,0,0,0,0,-0.03295898,-0.9439697,-0.314209,0,0,0,0,0,0
0.3799999,0.2403741,-1,-0.6139667,0.3198509,0,0,0,0,0,0,0,0,0,0,0,0,0,0,0.0719729,0.001499435,0.02574031,-0.02966309,-0.9787598,-0.291626,0,0,0,0,0,0
0.3899999,0.2165419,-1,-0.5122292,0.2649461,0,0,0,0,0,0,0,0,0,0,0,0,0,0,0,0,0,-0.08374023,-1.02063,-0.2922363,0,0,0,0,0,0
0.3999999,0.1848525,-1,-0.3855293,0.214183,0,0,0,0,0,0,0,0,0,0,0,0,0,0,0,0,0,-0.1350098,-0.9068604,-0.1746826,0,0,0,0,0,0
0.4099999,0.1848525,-1,-0.2747458,0.1902086,0,0,0,0,0,0,0,0,0,0,0,0,0,0,0.02498856,0.009495651,0.00449794,-0.08239746,-1.039551,-0.1760254,0,0,0,0,0,0
0.4199999,0.1848525,-1,-0.195568,0.1735322,0,0,0,0,0,0,0,0,0,0,0,0,0,0,0,0,0,-0.08850098,-1.015259,-0.1555176,0,0,0,0,0,0
0.4299999,0.1848525,-1,-0.1112123,0.1705255,0,0,0,0,0,0,0,0,0,0,0,0,0,0,0,0,0,-0.07824707,-1.055786,-0.2429199,0,0,0,0,0,0
0.4399998,0.1848525,-1,-0.06195885,0.2397538,0,0,0,0,0,0,0,0,0,0,0,0,0,0,0,0,0,-0.08459473,-1.052612,-0.1658936,0,0,0,0,0,0
0.4499998,0.2244794,-1,0.02995447,0.4559736,0,0,0,0,0,0,0,0,0,0,0,1,0,0,0,0,0,-0.1079102,-1.028809,-0.1124268,0,0,0,0,0,0
0.4599998,0.2722459,-1,0.1075727,0.7159152,0,0,0,0,0,0,0,0,0,0,0,1,0,0,-0.08071961,0.06722469,-0.0009996236,-0.2230225,-0.9133301,-0.135376,0,0,0,0,0,0
0.4699998,0.3283107,-1,0.1108348,0.8446372,0,0,0,0,0,0,0,0,0,0,0,1,0,0,0,0,0,0.01000977,-0.996582,-0.3292236,0,0,0,0,0,0
0.4799998,0.4091095,-1,0.1050796,0.945716,0,0,0,0,0,0,0,0,0,0,0,1,0,0,0,0,0,0.1029053,-0.9075928,-0.5651855,0,0,0,0,0,0
0.4899998,0.4743927,-1,0.04283452,0.9540415,0,0,0,0,0,0,0,0,0,0,0,1,0,0,0,0,0,0.09521484,-0.8782959,-0.4182129,0,0,0,0,0,0
0.4999998,0.4990265,-1,-0.02690349,0.8801286,0,0,0,0,0,0,0,0,0,0,0,1,0,0,0,0,0,0.08874512,-0.8676758,-0.369751,0,0,0,0,0,0
0.5099998,0.5154955,-1,-0.1411223,0.6260042,0,0,0,0,0,0,0,0,0,0,0,1,0,0,0,0,0,0.09216309,-0.9489746,-0.2753906,0,0,0,0,0,0
0.5199998,0.5154955,-1,-0.2187925,0.3202614,0,0,0,0,0,0,0,0,0,0,0,1,0,0,0,0,0,0.04125977,-0.9770508,-0.1446533,0,0,0,0,0,0
0.5299998,0.5154955,-1,-0.2111365,0.1202676,0,0,0,0,0,0,0,0,0,0,0,1,0,0,0.09971246,0.01599398,0.0297388,0.01660156,-0.9637451,-0.1815186,0,0,0,0,0,0
0.5399998,0.5154955,-1,-0.1950394,0.05678363,0,0,0,0,0,0,0,0,0,0,0,1,0,0,0,0,0,-0.03845215,-0.9716797,-0.2229004,0,0,0,0,0,0
0.5499998,0.4908059,-1,-0.1880188,-0.002379984,0,0,0,0,0,0,0,0,0,0,0,0,0,0,0,0,0,-0.09082031,-1.002319,-0.1955566,0,0,0,0,0,0
0.5599998,0.4662001,-1,-0.1903465,-0.03132284,0,0,0,0,0,0,0,0,0,0,0,0,0,0,0.05372977,-0.01599398,0.0209921,-0.1271973,-1.061523,-0.2105713,0,0,0,0,0,0
0.5699998,0.4416777,-1,-0.1839163,-0.04538194,0,0,0,0,0,0,0,0,0,0,0,0,0,0,0,0,0,-0.1767578,-0.9996338,-0.1535645,0,0,0,0,0,0
0.5799997,0.4253754,-1,-0.1839163,-0.04538194,0,0,0,0,0,0,0,0,0,0,0,0,0,0,0,0,0,-0.1652832,-1.069336,-0.1484375,0,0,0,0,0,0
0.5899997,0.4172379,-1,-0.1839163,-0.04538194,0,0,0,0,0,0,0,0,0,0,0,0,0,0,-0.005305622,-0.005305622,0.00322951,-0.08398438,-1.117188,-0.1119385,0,0,0,0,0,0
0.5999997,0.4172379,-1,-0.1820335,-0.03546106,0,0,0,0,0,0,0,0,0,0,0,0,0,0,0,0,0,-0.09655762,-1.124756,-0.2001953,0,0,0,0,0,0
0.6099997,0.4172379,-1,-0.1881317,0.007144243,0,0,0,0,0,0,0,0,0,0,0,1,0,0,0,0,0,-0.07055664,-1.090576,-0.140625,0,0,0,0,0,0
0.6199997,0.4172379,-1,-0.2062877,0.06876258,0,0,0,0,0,0,0,0,0,0,0,1,0,0,-0.1234134,0.024452,0.005305622,-0.08337402,-1.042969,-0.1072998,0,0,0,0,0,0
0.6299997,0.4172379,-1,-0.2392706,0.1379325,0,0,0,0,0,0,0,0,0,0,0,1,0,0,0,0,0,-0.2305908,-0.9265137,-0.04248047,0,0,0,0,0,0
0.6399997,0.4172379,-1,-0.3053987,0.266822,0,0,0,0,0,0,0,0,0,0,0,1,0,0,0,0,0,0.07116699,-1.027222,-0.3540039,0,0,0,0,0,0
0.6499997,0.4091095,-1,-0.3472091,0.3815863,0,0,0,0,0,0,0,0,0,0,0,1,0,0,-0.1109582,-0.01949266,-0.01449454,0.07885742,-0.8718262,-0.5012207,0,0,0,0,0,0
0.6599997,0.3686016,-1,-0.3585949,0.407336,0,0,0,0,0,0,0,0,0,0,0,1,0,0,0,0,0,0.07299805,-0.838623,-0.4483643,0,0,0,0,0,0
0.6699997,0.2802319,-1,-0.3665626,0.4084555,0,0,0,0,0,0,0,0,0,0,0,1,0,0,0,0,0,0.08056641,-0.8730469,-0.3458252,0,0,0,0,0,0
0.6799996,0.1532514,-1,-0.3567342,0.2900549,0,0,0,0,0,0,0,0,0,0,0,1,0,0,-0.006997366,-0.03048852,-0.01849304,0.1120605,-0.8948975,-0.3289795,0,0,0,0,0,0
0.6899996,0.06669273,-1,-0.356285,0.1893767,0,0,0,0,0,0,0,0,0,0,0,1,0,0,0,0,0,0.06958008,-0.885498,-0.2052002,0,0,0,0,0,0
0.6999996,-0.09026043,-1,-0.3575215,0.0715043,0,0,0,0,0,0,0,0,0,0,0,1,0,0,0,0,0,0.04577637,-0.9055176,-0.2036133,0,0,0,0,0,0
0.7099996,-0.2324234,-1,-0.3544206,-0.02157343,0,0,0,0,0,0,0,0,0,0,0,1,0,0,0,0,0,-0.03833008,-0.9278564,-0.2839355,0,0,0,0,0,0
0.7199996,-0.3202776,-1,-0.3692079,-0.09782433,0,0,0,0,0,0,0,0,0,0,0,0,0,0,0.0887166,-0.01149567,0.007747083,-0.1000977,-0.942627,-0.2731934,0,0,0,0,0,0
0.7299996,-0.3924417,-1,-0.3790455,-0.1717044,0,0,0,0,0,0,0,0,0,0,0,0,0,0,0,0,0,-0.1889648,-1.004883,-0.1756592,0,0,0,0,0,0
0.7399996,-0.4158609,-0.9861843,-0.3800876,-0.1786736,0,0,0,0,0,0,0,0,0,0,0,0,0,0,0.03073842,-0.01724351,-0.01599398,-0.1951904,-1.021851,-0.1716309,0,0,0,0,0,0
0.7499996,-0.423984,-0.9866543,-0.3800876,-0.1786736,0,0,0,0,0,0,0,0,0,0,0,0,0,0,0,0,0,-0.09912109,-1.113403,-0.151001,0,0,0,0,0,0
0.7599996,-0.423984,-0.9866543,-0.3800876,-0.1786736,0,0,0,0,0,0,0,0,0,0,0,0,0,0,0,0,0,-0.109375,-1.112183,-0.1624756,0,0,0,0,0,0
0.7699996,-0.4235087,-0.9776322,-0.3780225,-0.164779,0,0,0,0,0,0,0,0,0,0,0,0,0,0,-0.0674746,0.001749341,-0.004498306,-0.07653809,-1.090088,-0.1772461,0,0,0,0,0,0
0.7799996,-0.423984,-0.9866543,-0.344696,-0.1148987,0,0,0,0,0,0,0,0,0,0,0,1,0,0,0,0,0,-0.08691406,-1.091919,-0.1495361,0,0,0,0,0,0
0.7899995,-0.4158609,-0.9861843,-0.2634518,-0.0360513,0,0,0,0,0,0,0,0,0,0,0,1,0,0,0,0,0,-0.08081055,-1.021118,-0.1525879,0,0,0,0,0,0
0.7999995,-0.3915487,-0.9848042,-0.161649,0.01992933,0,0,0,0,0,0,0,0,0,0,0,1,0,0,-0.08446819,0.03898532,-0.001249529,-0.09082031,-0.8916016,-0.1878662,0,0,0,0,0,0
0.8099995,-0.3758259,-0.9929715,-0.126841,0.02536821,0,0,0,0,0,0,0,0,0,0,0,1,0,0,0,0,0,0.002075195,-0.9718018,-0.3179932,0,0,0,0,0,0
0.8199995,-0.3444016,-1,-0.08349611,0.02277167,0,0,0,0,0,0,0,0,0,0,0,1,0,0,0,0,0,0.08996582,-0.8710938,-0.4638672,0,0,0,0,0,0
0.8299995,-0.3122526,-1,-0.01871517,0.005021143,0,0,0,0,0,0,0,0,0,0,0,1,0,0,0,0,0,0.0369873,-0.7922363,-0.3706055,0,0,0,0,0,0
0.8399995,-0.2962267,-1,0,0,0,0,0,0,0,0,0,0,0,0,0,1,0,0,0,0,0,0.04443359,-0.8736572,-0.2860107,0,0,0,0,0,0
0.8499995,-0.2562958,-1,0,0,0,0,0,0,0,0,0,0,0,0,0,1,0,0,0,0,0,0.03491211,-0.9191895,-0.2592773,0,0,0,0,0,0
0.8599995,-0.2244794,-1,0,0,0,0,0,0,0,0,0,0,0,0,0,1,0,0,0,0,0,-0.02380371,-0.9396973,-0.2751465,0,0,0,0,0,0
0.8699995,-0.2006854,-1,0,0,0,0,0,0,0,0,0,0,0,0,0,0,0,0,0,0,0,-0.03442383,-0.9268799,-0.3195801,0,0,0,0,0,0
0.8799995,-0.1690417,-1,0.01084049,-0.02614471,0,0,0,0,0,0,0,0,0,0,0,0,0,0,0,0,0,-0.06408691,-0.9528809,-0.2686768,0,0,0,0,0,0
0.8899994,-0.1611441,-1,0.06000465,-0.1303549,0,0,0,0,0,0,0,0,0,0,0,0,0,0,0,0,0,-0.1065674,-0.9625244,-0.1933594,0,0,0,0,0,0
0.8999994,-0.1611441,-1,0.09496995,-0.172894,0,0,0,0,0,0,0,0,0,0,0,0,0,0,0,0,0,-0.135376,-1.033081,-0.130249,0,0,0,0,0,0
0.9099994,-0.1611441,-1,0.1561964,-0.2055216,0,0,0,0,0,0,0,0,0,0,0,0,0,0,0,0,0,-0.1290283,-1.172485,0.001953125,0,0,0,0,0,0
0.9199994,-0.1611441,-1,0.2027828,-0.2027828,0,0,0,0,0,0,0,0,0,0,0,0,0,0,-0.04398344,0.01849304,0.01149567,-0.08190918,-1.160767,-0.1170654,0,0,0,0,0,0
0.9299994,-0.1611441,-1,0.2325748,-0.1429074,0,0,0,0,0,0,0,0,0,0,0,0,0,0,0,0,0,-0.100708,-1.147949,-0.1616211,0,0,0,0,0,0
0.9399994,-0.1611441,-1,0.2914186,-0.04327999,0,0,0,0,0,0,0,0,0,0,0,1,0,0,0,0,0,-0.0838623,-1.070557,-0.1567383,0,0,0,0,0,0
0.9499994,-0.1611441,-1,0.3175621,0.02077509,0,0,0,0,0,0,0,0,0,0,0,1,0,0,-0.127452,0.03923523,0.0004998118,-0.07324219,-0.9842529,-0.1622314,0,0,0,0,0,0
0.9599994,-0.1611441,-1,0.338716,0.0640814,0,0,0,0,0,0,0,0,0,0,0,1,0,0,0,0,0,-0.08215332,-0.9974365,-0.2851563,0,0,0,0,0,0
0.9699994,-0.1611441,-1,0.3617404,0.1100949,0,0,0,0,0,0,0,0,0,0,0,1,0,0,0,0,0,0.09851074,-0.8040771,-0.5484619,0,0,0,0,0,0
0.9799994,-0.1611441,-1,0.3617404,0.1100949,0,0,0,0,0,0,0,0,0,0,0,1,0,0,-0.01399473,-0.03423711,-0.02424087,0.05639648,-0.779541,-0.4296875,0,0,0,0,0,0
0.9899994,-0.1690417,-1,0.3504066,0.08992736,0,0,0,0,0,0,0,0,0,0,0,1,0,0,0,0,0,0.0378418,-0.8565674,-0.3183594,0,0,0,0,0,0
0.9999993,-0.1769445,-1,0.2895818,0.00860144,0,0,0,0,0,0,0,0,0,0,0,1,0,0,0,0,0,0.07336426,-0.9862061,-0.1968994,0,0,0,0,0,0
1.009999,-0.1769445,-1,0.2050806,-0.06329649,0,0,0,0,0,0,0,0,0,0,0,1,0,0,0.04382905,-0.01683958,0.01407143,-0.01855469,-0.9993896,-0.1931152,0,0,0,0,0,0
1.019999,-0.1769445,-1,0.1628173,-0.08730785,0,0,0,0,0,0,0,0,0,0,0,0,0,0,0,0,0,-0.01855469,-0.9697266,-0.2751465,0,0,0,0,0,0
1.029999,-0.1769445,-1,0.1243483,-0.1153048,0,0,0,0,0,0,0,0,0,0,0,0,0,0,0,0,0,-0.05883789,-0.9284668,-0.2722168,0,0,0,0,0,0
1.039999,-0.2006854,-1,0.1045723,-0.1268218,0,0,0,0,0,0,0,0,0,0,0,0,0,0,0.04148438,-0.03748589,-0.001999247,-0.1221924,-0.9569092,-0.1903076,0,0,0,0,0,0
1.049999,-0.2165419,-1,0.09826346,-0.1244671,0,0,0,0,0,0,0,0,0,0,0,0,0,0,0,0,0,-0.123291,-0.9750977,-0.161499,0,0,0,0,0,0
1.059999,-0.2244794,-1,0.09210785,-0.1220964,0,0,0,0,0,0,0,0,0,0,0,0,0,0,0,0,0,-0.046875,-1.12207,-0.06970215,0,0,0,0,0,0
1.069999,-0.2244794,-1,0.08969313,-0.1147238,0,0,0,0,0,0,0,0,0,0,0,0,0,0,-0.04423334,0.004748212,0.009996235,-0.1300049,-1.109253,-0.1125488,0,0,0,0,0,0
1.079999,-0.2324234,-1,0.06767011,-0.06137522,0,0,0,0,0,0,0,0,0,0,0,0,0,0,0,0,0,-0.08789063,-1.124756,-0.168335,0,0,0,0,0,0
1.089999,-0.2324234,-1,0.02128552,-0.01036987,0,0,0,0,0,0,0,0,0,0,0,1,0,0,0,0,0,-0.08215332,-1.102051,-0.1269531,0,0,0,0,0,0
1.099999,-0.2324234,-1,0,0,0,0,0,0,0,0,0,0,0,0,0,1,0,0,0,0,0,-0.06604004,-1.045532,-0.1723633,0,0,0,0,0,0
1.109999,-0.2324234,-1,0,0,0,0,0,0,0,0,0,0,0,0,0,1,0,0,0,0,0,-0.147583,-0.9151611,-0.2113037,0,0,0,0,0,0
1.119999,-0.2324234,-1,0,0,0,0,0,0,0,0,0,0,0,0,0,1,0,0,0,0,0,0.06628418,-0.8823242,-0.5014648,0,0,0,0,0,0
1.129999,-0.2483314,-1,0,0,0,0,0,0,0,0,0,0,0,0,0,1,0,0,-0.05347987,-0.0337373,-0.03323749,0.07763672,-0.7805176,-0.5775146,0,0,0,0,0,0
1.139999,-0.2642672,-1,0,0,0,0,0,0,0,0,0,0,0,0,0,1,0,0,0,0,0,0.03344727,-0.8164063,-0.4333496,0,0,0,0,0,0
1.149999,-0.2882255,-1,0,0,0,0,0,0,0,0,0,0,0,0,0,1,0,0,0,0,0,-0.0004882813,-0.9088135,-0.2052002,0,0,0,0,0,0
1.159999,-0.2962267,-1,0,0,0,0,0,0,0,0,0,0,0,0,0,1,0,0,0.05074943,-0.01614755,0.007843095,0.007080078,-0.9467773,-0.2215576,0,0,0,0,0,0
1.169999,-0.3042357,-1,0,0,0,0,0,0,0,0,0,0,0,0,0,1,0,0,0,0,0,-0.05773926,-0.9348145,-0.28125,0,0,0,0,0,0
1.179999,-0.3202776,-1,0,0,0,0,0,0,0,0,0,0,0,0,0,0,0,0,0,0,0,-0.0411377,-0.9057617,-0.3218994,0,0,0,0,0,0
1.189999,-0.336352,-1,0,0,0,0,0,0,0,0,0,0,0,0,0,0,0,0,0.08189113,-0.03598596,-0.007381736,-0.06469727,-0.9407959,-0.2857666,0,0,0,0,0,0
1.199999,-0.3524597,-1,0,0,0,0,0,0,0,0,0,0,0,0,0,0,0,0,0,0,0,-0.07348633,-1.022583,-0.2929688,0,0,0,0,0,0
1.209999,-0.3605264,-1,0,0,0,0,0,0,0,0,0,0,0,0,0,0,0,0,0,0,0,-0.1202393,-1.090942,-0.02026367,0,0,0,0,0,0
1.219999,-0.3686016,-1,0,0,0,0,0,0,0,0,0,0,0,0,0,0,0,0,0.01449218,0.003997843,0.008995147,-0.1054688,-1.181274,-0.02758789,0,0,0,0,0,0
1.229999,-0.3686016,-1,0,0,0,0,0,0,0,0,0,0,0,0,0,0,0,0,0,0,0,-0.08984375,-1.165161,-0.1473389,0,0,0,0,0,0
1.239999,-0.3686016,-1,0,0,0,0,0,0,0,0,0,0,0,0,0,1,0,0,-0.1154565,0.03023862,0.02074219,-0.05236816,-1.079468,-0.1628418,0,0,0,0,0,0
1.249999,-0.3686016,-1,0,0,0,0,0,0,0,0,0,0,0,0,0,1,0,0,0,0,0,-0.04846191,-0.9821777,-0.2088623,0,0,0,0,0,0
1.259999,-0.3686016,-1,0,0,0,0,0,0,0,0,0,0,0,0,0,1,0,0,0,0,0,-0.1126709,-0.8973389,-0.3082275,0,0,0,0,0,0
1.269999,-0.3686016,-1,0,0,0,0,0,0,0,0,0,0,0,0,0,1,0,0,0,0,0,0.1005859,-0.8634033,-0.5709229,0,0,0,0,0,0
1.279999,-0.3686016,-1,0,0,0,0,0,0,0,0,0,0,0,0,0,1,0,0,-0.008746706,-0.02499059,-0.02698984,0.01977539,-0.8129883,-0.4145508,0,0,0,0,0,0
1.289999,-0.3605264,-1,0,0,0,0,0,0,0,0,0,0,0,0,0,1,0,0,0,0,0,0.01745605,-0.8599854,-0.3377686,0,0,0,0,0,0
1.299999,-0.3524597,-1,0,0,0,0,0,0,0,0,0,0,0,0,0,1,0,0,0,0,0,0.002075195,-0.9437256,-0.237793,0,0,0,0,0,0
1.309999,-0.3444016,-1,0.009778961,-0.0172296,0,0,0,0,0,0,0,0,0,0,0,1,0,0,0.04972723,-0.01524302,0.007246681,-0.05664063,-0.9644775,-0.2322998,0,0,0,0,0,0
1.319999,-0.336352,-1,0.02489639,-0.05572049,0,0,0,0,0,0,0,0,0,0,0,1,0,0,0,0,0,-0.03686523,-0.9158936,-0.310791,0,0,0,0,0,0
1.329999,-0.3283107,-1,0.04108091,-0.1232427,0,0,0,0,0,0,0,0,0,0,0,0,0,0,0,0,0,-0.07446289,-0.8754883,-0.3476563,0,0,0,0,0,0
1.339999,-0.3202776,-1,0.05045334,-0.1849956,0,0,0,0,0,0,0,0,0,0,0,0,0,0,0,0,0,-0.07373047,-0.9753418,-0.3049316,0,0,0,0,0,0
1.349999,-0.3042357,-1,0.07213332,-0.2856479,0,0,0,0,0,0,0,0,0,0,0,0,0,0,0,0,0,-0.08276367,-0.9927979,-0.1159668,0,0,0,0,0,0
1.359999,-0.2802319,-1,0.09474742,-0.3331442,0,0,0,0,0,0,0,0,0,0,0,0,0,0,0,0,0,-0.09558105,-1.218994,-0.02075195,0,0,0,0,0,0
1.369999,-0.2562958,-1,0.1011144,-0.3339838,0,0,0,0,0,0,0,0,0,0,0,0,0,0,0,0,0,-0.05664063,-1.154785,-0.1408691,0,0,0,0,0,0
1.379999,-0.2244794,-1,0.1139797,-0.3357779,0,0,0,0,0,0,0,0,0,0,0,1,0,0,0,0,0,-0.07312012,-1.201538,-0.1468506,0,0,0,0,0,0
1.389999,-0.1769445,-1,0.122782,-0.3024629,0,0,0,0,0,0,0,0,0,0,0,1,0,0,0,0,0,-0.1165771,-1.056763,-0.0916748,0,0,0,0,0,0
1.399999,-0.1374799,-1,0.1235023,-0.2277931,0,0,0,0,0,0,0,0,0,0,0,1,0,0,0,0,0,-0.2878418,-1.01709,0.01867676,0,0,0,0,0,0
1.409999,-0.09026043,-1,0.08937357,-0.08557043,0,0,0,0,0,0,0,0,0,0,0,1,0,0,0,0,0,0.0826416,-0.9991455,-0.5262451,0,0,0,0,0,0
1.419999,-0.01960851,-1,0.05047693,-0.02579932,0,0,0,0,0,0,0,0,0,0,0,1,0,0,0,0,0,0.09020996,-0.7200928,-0.7078857,0,0,0,0,0,0
1.429999,0.01176485,-1,0.03209154,-0.01643713,0,0,0,0,0,0,0,0,0,0,0,1,0,0,0,0,0,0.05493164,-0.7098389,-0.6019287,0,0,0,0,0,0
1.439999,0.05099206,-1,0.01399892,-0.009199293,0,0,0,0,0,0,0,0,0,0,0,1,0,0,0,0,0,0.06506348,-0.7672119,-0.4257813,0,0,0,0,0,0
1.449999,0.08240198,-1,0.02601569,-0.02937255,0,0,0,0,0,0,0,0,0,0,0,1,0,0,0,0,0,0.01269531,-0.8969727,-0.2050781,0,0,0,0,0,0
1.459999,0.1217254,-1,0.03820034,-0.05927639,0,0,0,0,0,0,0,0,0,0,0,1,0,0,0,0,0,-0.01452637,-0.9418945,-0.1998291,0,0,0,0,0,0
1.469999,0.2244794,-1,0.04649042,-0.1097174,0,0,0,0,0,0,0,0,0,0,0,1,0,0,0,0,0,-0.03149414,-0.8480225,-0.3198242,0,0,0,0,0,0
1.479999,0.3444016,-1,0.05000648,-0.228977,0,0,0,0,0,0,0,0,0,0,0,0,0,0,0,0,0,-0.03710938,-0.8748779,-0.3240967,0,0,0,0,0,0
1.489999,0.433522,-1,0.05171585,-0.3376741,0,0,0,0,0,0,0,0,0,0,0,0,0,0,0,0,0,-0.02429199,-0.9140625,-0.2969971,0,0,0,0,0,0
1.499999,0.5962749,-0.9884557,0.05242034,-0.5486662,0,0,0,0,0,0,0,0,0,0,0,0,0,0,0,0,0,-0.0559082,-0.9472656,-0.2348633,0,0,0,0,0,0
1.509999,0.7872236,-0.8271842,0.05593998,-0.7421371,0,0,0,0,0,0,0,0,0,0,0,0,0,0,0.1310258,-0.0002306792,0.04359838,-0.09301758,-1.161377,0.02697754,0,0,0,0,0,0
1.519999,0.9357346,-0.6012593,0.0569221,-0.8158836,0,0,0,0,0,0,0,0,0,0,0,0,0,0,0,0,0,-0.09594727,-1.311157,0.06555176,0,0,0,0,0,0
1.529999,1,-0.035298,0.06477383,-0.8344393,0,0,0,0,0,0,0,0,0,0,0,0,0,0,0,0,0,-0.1481934,-1.230713,-0.1088867,0,0,0,0,0,0
1.539999,1,0.3524597,0.07240566,-0.8345705,0,0,0,0,0,0,0,0,0,0,0,1,0,0,0,0,0,-0.1801758,-1.17041,-0.1992188,0,0,0,0,0,0
1.549999,1,0.4009901,0.07973079,-0.8162914,0,0,0,0,0,0,0,0,0,0,0,1,0,0,0,0,0,-0.1721191,-1.049927,-0.1595459,0,0,0,0,0,0
1.559999,1,0.4580168,0.09065999,-0.6418728,0,0,0,0,0,0,0,0,0,0,0,1,0,0,0,0,0,-0.319458,-1.042236,0.03857422,0,0,0,0,0,0
1.569999,1,0.4990265,0.09840599,-0.307146,0,0,0,0,0,0,0,0,0,0,0,1,0,0,-0.1961761,0.09646368,0.01399473,-0.01574707,-1.027832,-0.4755859,0,0,0,0,0,0
1.579999,1,0.5072563,0.06707518,-0.09245497,0,0,0,0,0,0,0,0,0,0,0,1,0,0,0,0,0,0.04956055,-0.8339844,-0.6960449,0,0,0,0,0,0
1.589999,1,0.5154955,0,0,0,0,0,0,0,0,0,0,0,0,0,1,0,0,0,0,0,0.09020996,-0.7321777,-0.5915527,0,0,0,0,0,0
1.599999,1,0.5154955,0,0,0,0,0,0,0,0,0,0,0,0,0,1,0,0,-0.0002498855,-0.01049519,-0.04747825,0.08288574,-0.7341309,-0.5025635,0,0,0,0,0,0
1.609999,1,0.5154955,0,0,0,0,0,0,0,0,0,0,0,0,0,1,0,0,0,0,0,0.07849121,-0.7670898,-0.4074707,0,0,0,0,0,0
1.619999,1,0.5072563,0,0,0,0,0,0,0,0,0,0,0,0,0,1,0,0,0,0,0,0.08203125,-0.8322754,-0.338501,0,0,0,0,0,0
1.629999,1,0.4743927,0,0,0,0,0,0,0,0,0,0,0,0,0,1,0,0,0,0,0,-0.001586914,-0.8204346,-0.2684326,0,0,0,0,0,0
1.639999,1,0.4253754,0,0,0,0,0,0,0,0,0,0,0,0,0,1,0,0,0,0,0,0.02624512,-0.8723145,-0.2982178,0,0,0,0,0,0
1.649999,1,0.3444016,0,0,0,0,0,0,0,0,0,0,0,0,0,0,0,0,0,0,0,-0.05407715,-0.9381104,-0.2595215,0,0,0,0,0,0
1.659999,1,0.2882255,0,0,0,0,0,0,0,0,0,0,0,0,0,0,0,0,0,0,0,-0.04724121,-1.028076,-0.1936035,0,0,0,0,0,0
1.669999,1,0.2165419,0,0,0,0,0,0,0,0,0,0,0,0,0,0,0,0,0,0,0,-0.135376,-1.031128,-0.1196289,0,0,0,0,0,0
1.679999,1,0.1296006,0,0,0,0,0,0,0,0,0,0,0,0,0,0,0,0,0,0,0,-0.1732178,-1.074707,-0.1668701,0,0,0,0,0,0
1.689999,1,0.05884144,0,0,0,0,0,0,0,0,0,0,0,0,0,0,0,0,0,0,0,-0.1090088,-1.227783,-0.06506348,0,0,0,0,0,0
1.699999,1,-0.06669273,0,0,0,0,0,0,0,0,0,0,0,0,0,0,0,0,0,0,0,-0.1230469,-1.275635,-0.05432129,0,0,0,0,0,0
1.709999,1,-0.1296006,0,0,0,0,0,0,0,0,0,0,0,0,0,0,0,0,0,0,0,-0.1191406,-1.226685,-0.1114502,0,0,0,0,0,0
1.719999,1,-0.2483314,0,0,0,0,0,0,0,0,0,0,0,0,0,1,0,0,0,0,0,-0.1271973,-1.123047,-0.123291,0,0,0,0,0,0
1.729999,1,-0.3686016,0,0,0,0,0,0,0,0,0,0,0,0,0,1,0,0,0,0,0,-0.1098633,-1.011597,0.04663086,0,0,0,0,0,0
1.739999,1,-0.4330592,0,0,0,0,0,0,0,0,0,0,0,0,0,1,0,0,0,0,0,-0.1182861,-1.020386,-0.1040039,0,0,0,0,0,0
1.749999,0.9757748,-0.5376719,0,0,0,0,0,0,0,0,0,0,0,0,0,1,0,0,0,0,0,0.09399414,-0.9300537,-0.519043,0,0,0,0,0,0
1.759999,0.9045442,-0.657488,0,0,0,0,0,0,0,0,0,0,0,0,0,1,0,0,0,0,0,0.09033203,-0.7160645,-0.5916748,0,0,0,0,0,0
1.769999,0.8259454,-0.7700843,0,0,0,0,0,0,0,0,0,0,0,0,0,1,0,0,0,0,0,0.04333496,-0.7659912,-0.4973145,0,0,0,0,0,0
1.779999,0.6827472,-0.9063369,0,0,0,0,0,0,0,0,0,0,0,0,0,1,0,0,0,0,0,0.07092285,-0.842041,-0.3291016,0,0,0,0,0,0
1.789999,0.5304679,-0.9931315,0,0,0,0,0,0,0,0,0,0,0,0,0,1,0,0,0,0,0,0.01538086,-0.8339844,-0.2606201,0,0,0,0,0,0
1.799999,0.3766855,-1,0,0,0,0,0,0,0,0,0,0,0,0,0,1,0,0,0.07104921,-0.03713936,-0.01061124,0.02307129,-0.9000244,-0.2858887,0,0,0,0,0,0
1.809999,0.2802319,-1,0,0,0,0,0,0,0,0,0,0,0,0,0,1,0,0,0,0,0,0.01672363,-0.9199219,-0.3210449,0,0,0,0,0,0
1.819999,0.1374799,-1,0,0,0,0,0,0,0,0,0,0,0,0,0,1,0,0,0,0,0,-0.03479004,-0.9724121,-0.3066406,0,0,0,0,0,0
1.829999,0.05884144,-1,0,0,0,0,0,0,0,0,0,0,0,0,0,0,0,0,0,0,0,-0.05578613,-1.030518,-0.2958984,0,0,0,0,0,0
1.839999,-0.05884144,-1,-0.02343045,0.008572117,0,0,0,0,0,0,0,0,0,0,0,0,0,0,0,0,0,-0.0982666,-1.041382,-0.2702637,0,0,0,0,0,0
1.849999,-0.1769445,-1,-0.1724896,0.1174929,0,0,0,0,0,0,0,0,0,0,0,0,0,0,0.008247566,-0.0257424,0.01599528,-0.1120605,-1.077881,-0.1818848,0,0,0,0,0,0
1.859999,-0.2403741,-1,-0.2829929,0.2702741,0,0,0,0,0,0,0,0,0,0,0,0,0,0,0,0,0,-0.1461182,-1.060303,-0.1846924,0,0,0,0,0,0
1.869999,-0.2962267,-1,-0.3612148,0.6442285,0,0,0,0,0,0,0,0,0,0,0,1,0,0,0,0,0,-0.1882324,-1.131348,-0.1594238,0,0,0,0,0,0
1.879999,-0.3283107,-1,-0.3444016,1,0,0,0,0,0,0,0,0,0,0,0,1,0,0,-0.1279414,-0.01249428,-0.001249428,-0.04748535,-0.8463135,-0.4099121,0,0,0,0,0,0
1.889999,-0.3444016,-1,-0.336352,1,0,0,0,0,0,0,0,0,0,0,0,1,0,0,0,0,0,-0.1550293,-0.8823242,-0.1873779,0,0,0,0,0,0
1.899999,-0.3605264,-1,-0.3283107,1,0,0,0,0,0,0,0,0,0,0,0,1,0,0,0,0,0,0.04846191,-0.9708252,-0.2698975,0,0,0,0,0,0
1.909999,-0.3686016,-1,-0.3283107,1,0,0,0,0,0,0,0,0,0,0,0,1,0,0,-0.02260657,-0.006228339,0.01199532,0.01513672,-0.9091797,-0.3826904,0,0,0,0,0,0
1.919999,-0.3766855,-1,-0.3283107,1,0,0,0,0,0,0,0,0,0,0,0,1,0,0,0,0,0,0.00378418,-0.8884277,-0.3739014,0,0,0,0,0,0
1.929999,-0.3847782,-1,-0.336352,1,0,0,0,0,0,0,0,0,0,0,0,1,0,0,0,0,0,-0.00793457,-0.8881836,-0.3360596,0,0,0,0,0,0
1.939999,-0.3847782,-1,-0.336352,1,0,0,0,0,0,0,0,0,0,0,0,1,0,0,0,0,0,-0.01599121,-0.9107666,-0.3389893,0,0,0,0,0,0
1.949998,-0.3847782,-1,-0.336352,1,0,0,0,0,0,0,0,0,0,0,0,1,0,0,0,0,0,-0.02832031,-0.940918,-0.3658447,0,0,0,0,0,0
1.959998,-0.3847782,-1,-0.3359554,1,0,0,0,0,0,0,0,0,0,0,0,1,0,0,0,0,0,0.0008544922,-0.9837646,-0.3028564,0,0,0,0,0,0
1.969998,-0.3524597,-1,-0.2931967,0.7805887,0,0,0,0,0,0,0,0,0,0,0,1,0,0,0.1137072,0.002748965,0.03148814,-0.04431152,-0.9453125,-0.2302246,0,0,0,0,0,0
1.979998,-0.3202776,-1,-0.2699533,0.5651023,0,0,0,0,0,0,0,0,0,0,0,1,0,0,0,0,0,-0.02990723,-0.9501953,-0.2457275,0,0,0,0,0,0
1.989998,-0.2802319,-1,-0.2304644,0.2304644,0,0,0,0,0,0,0,0,0,0,0,0,0,0,0,0,0,-0.01403809,-0.9995117,-0.2868652,0,0,0,0,0,0
1.999998,-0.2403741,-1,-0.1042276,0.03356482,0,0,0,0,0,0,0,0,0,0,0,0,0,0,0.1264524,0.001999247,0.03223786,-0.04968262,-1.008179,-0.2945557,0,0,0,0,0,0
2.009999,-0.2324234,-1,0,0,0,0,0,0,0,0,0,0,0,0,0,0,0,0,0,0,0,-0.1280518,-1.015503,-0.2243652,0,0,0,0,0,0
2.019999,-0.2244794,-1,0,0,0,0,0,0,0,0,0,0,0,0,0,0,0,0,0,0,0,-0.2265625,-0.9802246,-0.1087646,0,0,0,0,0,0
2.029999,-0.2165419,-1,0,0,0,0,0,0,0,0,0,0,0,0,0,0,0,0,0.02848927,0.01349492,0.0252405,-0.05432129,-1.110596,-0.09777832,0,0,0,0,0,0
2.039999,-0.2165419,-1,0,0,0,0,0,0,0,0,0,0,0,0,0,0,0,0,0,0,0,-0.1125488,-1.073364,-0.06298828,0,0,0,0,0,0
2.049999,-0.2165419,-1,0,0,0,0,0,0,0,0,0,0,0,0,0,0,0,0,0,0,0,-0.123291,-1.199219,-0.1691895,0,0,0,0,0,0
2.059999,-0.2244794,-1,0,0,0,0,0,0,0,0,0,0,0,0,0,1,0,0,-0.1612448,0.02768151,0.02675879,-0.1142578,-1.083862,-0.1506348,0,0,0,0,0,0
2.069999,-0.2483314,-1,0,0,0,0,0,0,0,0,0,0,0,0,0,1,0,0,0,0,0,-0.08032227,-0.9353027,-0.192749,0,0,0,0,0,0
2.079998,-0.2882255,-1,0,0,0,0,0,0,0,0,0,0,0,0,0,1,0,0,0,0,0,-0.08435059,-0.8095703,-0.1700439,0,0,0,0,0,0
2.089998,-0.3122526,-1,-0.03483805,0.02411865,0,0,0,0,0,0,0,0,0,0,0,1,0,0,-0.08281385,0.03852343,-0.01983842,0.02380371,-0.8557129,-0.4133301,0,0,0,0,0,0
2.099998,-0.3202776,-1,-0.09726287,0.0642302,0,0,0,0,0,0,0,0,0,0,0,1,0,0,0,0,0,0.1138916,-0.8082275,-0.5609131,0,0,0,0,0,0
2.109998,-0.336352,-1,-0.1406106,0.08704469,0,0,0,0,0,0,0,0,0,0,0,1,0,0,0,0,0,0.06872559,-0.848877,-0.4779053,0,0,0,0,0,0
2.119998,-0.3524597,-1,-0.1445074,0.07781168,0,0,0,0,0,0,0,0,0,0,0,1,0,0,0.07822055,-0.02424087,-0.003748589,0.06604004,-0.90979,-0.3586426,0,0,0,0,0,0
2.129998,-0.3524597,-1,-0.1305021,0.03814678,0,0,0,0,0,0,0,0,0,0,0,1,0,0,0,0,0,0.04296875,-0.934082,-0.2987061,0,0,0,0,0,0
2.139998,-0.3524597,-1,-0.1143866,-0.00544698,0,0,0,0,0,0,0,0,0,0,0,1,0,0,0,0,0,-0.02905273,-1.0177,-0.189209,0,0,0,0,0,0
2.149998,-0.3605264,-1,-0.09092321,-0.02073687,0,0,0,0,0,0,0,0,0,0,0,1,0,0,0,0,0,-0.04284668,-0.9388428,-0.2359619,0,0,0,0,0,0
2.159998,-0.3605264,-1,0,0,0,0,0,0,0,0,0,0,0,0,0,1,0,0,0,0,0,-0.0802002,-0.9289551,-0.2618408,0,0,0,0,0,0
2.169998,-0.3605264,-1,0,0,0,0,0,0,0,0,0,0,0,0,0,0,0,0,0,0,0,-0.102417,-1.011719,-0.2429199,0,0,0,0,0,0
2.179998,-0.3605264,-1,0,0,0,0,0,0,0,0,0,0,0,0,0,0,0,0,0,0,0,-0.1520996,-1.156372,-0.135498,0,0,0,0,0,0
2.189998,-0.3605264,-1,0,0,0,0,0,0,0,0,0,0,0,0,0,0,0,0,0,0,0,-0.1900635,-1.125366,-0.08288574,0,0,0,0,0,0
2.199998,-0.3686016,-1,0,0,0,0,0,0,0,0,0,0,0,0,0,0,0,0,0,0,0,-0.1993408,-1.110474,-0.1271973,0,0,0,0,0,0
2.209998,-0.3762585,-1,0,0,0,0,0,0,0,0,0,0,0,0,0,1,0,0,-0.1214543,0.02199172,0.009246519,-0.1292725,-1.128784,-0.1419678,0,0,0,0,0,0
2.219998,-0.4077473,-0.9857191,0,0,0,0,0,0,0,0,0,0,0,0,0,1,0,0,0,0,0,-0.0456543,-0.8935547,-0.2189941,0,0,0,0,0,0
2.229998,-0.4316368,-0.9781127,0,0,0,0,0,0,0,0,0,0,0,0,0,1,0,0,0,0,0,-0.05761719,-0.7241211,-0.2869873,0,0,0,0,0,0
2.239998,-0.5025771,-0.9378801,0,0,0,0,0,0,0,0,0,0,0,0,0,1,0,0,0,0,0,0.03991699,-0.8186035,-0.5439453,0,0,0,0,0,0
2.249998,-0.5970997,-0.8739007,0,0,0,0,0,0,0,0,0,0,0,0,0,1,0,0,0.02823937,-0.02923899,-0.02299134,0.06152344,-0.8182373,-0.5506592,0,0,0,0,0,0
2.259998,-0.6765366,-0.8189653,0,0,0,0,0,0,0,0,0,0,0,0,0,1,0,0,0,0,0,0.04785156,-0.869751,-0.3774414,0,0,0,0,0,0
2.269998,-0.7544409,-0.7307412,0,0,0,0,0,0,0,0,0,0,0,0,0,1,0,0,0,0,0,-0.009765625,-1.028198,-0.1544189,0,0,0,0,0,0
2.279998,-0.7935843,-0.6830353,0,0,0,0,0,0,0,0,0,0,0,0,0,1,0,0,0,0,0,-0.04589844,-1.017212,-0.2000732,0,0,0,0,0,0
2.289998,-0.8096247,-0.6674467,0,0,0,0,0,0,0,0,0,0,0,0,0,1,0,0,0,0,0,-0.05883789,-0.9870605,-0.2508545,0,0,0,0,0,0
2.299998,-0.817022,-0.6512495,0,0,0,0,0,0,0,0,0,0,0,0,0,0,0,0,0,0,0,-0.0847168,-0.9366455,-0.289917,0,0,0,0,0,0
2.309998,-0.817022,-0.6512495,0,0,0,0,0,0,0,0,0,0,0,0,0,0,0,0,0,0,0,-0.09558105,-1.027832,-0.3336182,0,0,0,0,0,0
2.319998,-0.817022,-0.6512495,0,0,0,0,0,0,0,0,0,0,0,0,0,0,0,0,0.0169936,-0.03273767,-0.04623259,-0.1491699,-0.9482422,-0.1519775,0,0,0,0,0,0
2.329998,-0.817022,-0.6512495,0,0,0,0,0,0,0,0,0,0,0,0,0,0,0,0,0,0,0,-0.1375732,-1.047974,-0.1230469,0,0,0,0,0,0
2.339998,-0.8176712,-0.6596672,0,0,0,0,0,0,0,0,0,0,0,0,0,0,0,0,0,0,0,-0.08337402,-1.161743,-0.1092529,0,0,0,0,0,0
2.349998,-0.7942412,-0.6915035,0,0,0,0,0,0,0,0,0,0,0,0,0,0,0,0,-0.08396724,0.006228339,0,-0.06286621,-1.1604,-0.1785889,0,0,0,0,0,0
2.359998,-0.7623699,-0.7228688,0,0,0,0,0,0,0,0,0,0,0,0,0,1,0,0,0,0,0,-0.05578613,-1.119507,-0.1815186,0,0,0,0,0,0
2.369998,-0.6986669,-0.7776123,0,0,0,0,0,0,0,0,0,0,0,0,0,1,0,0,0,0,0,-0.04187012,-1.005737,-0.2012939,0,0,0,0,0,0
2.379998,-0.6525387,-0.8344585,0,0,0,0,0,0,0,0,0,0,0,0,0,1,0,0,-0.1130328,0.06043796,-0.007151056,-0.3052979,-0.9445801,0.01037598,0,0,0,0,0,0
2.389998,-0.6208947,-0.8581793,-0.009188499,0.06957007,0,0,0,0,0,0,0,0,0,0,0,1,0,0,0,0,0,-0.107666,-0.9584961,-0.1893311,0,0,0,0,0,0
2.399998,-0.5579947,-0.9062466,-0.01959331,0.2715073,0,0,0,0,0,0,0,0,0,0,0,1,0,0,0,0,0,0.08508301,-0.8789063,-0.6433105,0,0,0,0,0,0
2.409998,-0.4949155,-0.9462785,-0.02242838,0.4005067,0,0,0,0,0,0,0,0,0,0,0,1,0,0,-0.05447949,-0.02898908,-0.02649003,0.04943848,-0.7277832,-0.6461182,0,0,0,0,0,0
2.419998,-0.4632367,-0.9621069,-0.02273341,0.4189444,0,0,0,0,0,0,0,0,0,0,0,1,0,0,0,0,0,0.04223633,-0.7485352,-0.487915,0,0,0,0,0,0
2.429998,-0.4153903,-0.9771562,-0.009737972,0.4187329,0,0,0,0,0,0,0,0,0,0,0,1,0,0,0,0,0,0.08569336,-0.8660889,-0.4057617,0,0,0,0,0,0
2.439998,-0.3915487,-0.9848042,0,0.3910035,0,0,0,0,0,0,0,0,0,0,0,1,0,0,0,0,0,0.05871582,-0.8878174,-0.3660889,0,0,0,0,0,0
2.449998,-0.360111,-1,0.00263092,0.2341519,0,0,0,0,0,0,0,0,0,0,0,1,0,0,0,0,0,-0.002441406,-0.9147949,-0.2531738,0,0,0,0,0,0
2.459998,-0.3202776,-1,0,0.01268743,0,0,0,0,0,0,0,0,0,0,0,1,0,0,0,0,0,-0.01696777,-0.9245605,-0.3057861,0,0,0,0,0,0
2.469998,-0.2882255,-1,0,0,0,0,0,0,0,0,0,0,0,0,0,0,0,0,0.1941769,-0.02474068,0.021242,-0.1151123,-0.9835205,-0.1885986,0,0,0,0,0,0
2.479998,-0.2562958,-1,0,0,0,0,0,0,0,0,0,0,0,0,0,0,0,0,0,0,0,-0.1137695,-0.9880371,-0.208374,0,0,0,0,0,0
2.489998,-0.1927661,-1,0,0,0,0,0,0,0,0,0,0,0,0,0,0,0,0,0.1155703,-0.024452,0.004382906,-0.1766357,-1.009766,-0.112793,0,0,0,0,0,0
2.499998,-0.1374799,-1,0,0,0,0,0,0,0,0,0,0,0,0,0,0,0,0,0,0,0,-0.1878662,-1.039551,-0.1318359,0,0,0,0,0,0
2.509998,-0.01176485,-1,0,0,0,0,0,0,0,0,0,0,0,0,0,0,0,0,0,0,0,-0.0916748,-1.143677,-0.1539307,0,0,0,0,0,0
2.519998,0.1532514,-1,0,0,0,0,0,0,0,0,0,0,0,0,0,0,0,0,0,0,0,-0.0916748,-1.213257,-0.05187988,0,0,0,0,0,0
2.529998,0.2802319,-1,0,0,0,0,0,0,0,0,0,0,0,0,0,0,0,0,0,0,0,-0.1296387,-1.266724,-0.08239746,0,0,0,0,0,0
2.539998,0.4580168,-1,0.1217032,0.03670416,0,0,0,0,0,0,0,0,0,0,0,1,0,0,0,0,0,-0.1278076,-1.213623,-0.06640625,0,0,0,0,0,0
2.549998,0.6363822,-0.9645792,0.3259635,0.2057051,0,0,0,0,0,0,0,0,0,0,0,1,0,0,0,0,0,-0.1262207,-1.102417,-0.05578613,0,0,0,0,0,0
2.559998,0.7396386,-0.8755721,0.4801209,0.4151421,0,0,0,0,0,0,0,0,0,0,0,1,0,0,0,0,0,-0.2137451,-0.8712158,-0.02307129,0,0,0,0,0,0
2.569998,0.7945727,-0.810544,0.6339259,0.70393,0,0,0,0,0,0,0,0,0,0,0,1,0,0,0,0,0,-0.04711914,-0.956665,-0.4100342,0,0,0,0,0,0
2.579998,0.7859832,-0.8099219,0.6893774,0.8806496,0,0,0,0,0,0,0,0,0,0,0,1,0,0,0,0,0,0.1052246,-0.7611084,-0.5866699,0,0,0,0,0,0
2.589998,0.7390295,-0.8668616,0.6911871,0.9069334,0,0,0,0,0,0,0,0,0,0,0,1,0,0,0,0,0,0.0982666,-0.6988525,-0.5788574,0,0,0,0,0,0
2.599998,0.5392466,-1,0.6827472,0.9063369,0,0,0,0,0,0,0,0,0,0,0,1,0,0,0,0,0,0.09155273,-0.7895508,-0.4405518,0,0,0,0,0,0
2.609998,0.2483314,-1,0.6911871,0.9069334,0,0,0,0,0,0,0,0,0,0,0,1,0,0,0.02673993,-0.04723221,-0.06672488,0.1864014,-0.8677979,-0.3039551,0,0,0,0,0,0
2.619998,0.07454614,-1,0.6765366,0.8189653,0,0,0,0,0,0,0,0,0,0,0,1,0,0,0,0,0,0.1387939,-0.9205322,-0.2089844,0,0,0,0,0,0
2.629998,-0.1374799,-1,0.5751323,0.6056029,0,0,0,0,0,0,0,0,0,0,0,1,0,0,0,0,0,0.102417,-0.942749,-0.2280273,0,0,0,0,0,0
2.639998,-0.2882255,-1,0.4260501,0.3767551,0,0,0,0,0,0,0,0,0,0,0,1,0,0,0.07035717,-0.01983842,0.006459019,-0.02783203,-0.9237061,-0.2906494,0,0,0,0,0,0
2.649998,-0.3605264,-1,0.3256362,0.2482573,0,0,0,0,0,0,0,0,0,0,0,0,0,0,0,0,0,-0.04931641,-0.9206543,-0.3027344,0,0,0,0,0,0
2.659998,-0.4321167,-0.987129,0.1241093,0.06307194,0,0,0,0,0,0,0,0,0,0,0,0,0,0,0,0,0,-0.1134033,-0.9885254,-0.3370361,0,0,0,0,0,0
2.669998,-0.4719189,-0.9715978,0.004210616,0.001479406,0,0,0,0,0,0,0,0,0,0,0,0,0,0,0,0,0,-0.1834717,-0.9769287,-0.2099609,0,0,0,0,0,0
2.679998,-0.4872523,-0.9546975,0,0,0,0,0,0,0,0,0,0,0,0,0,0,0,0,0,0,0,-0.2412109,-1.077759,-0.2315674,0,0,0,0,0,0
2.689998,-0.4872523,-0.9546975,0,0,0,0,0,0,0,0,0,0,0,0,0,0,0,0,0,0,0,-0.1708984,-1.098022,-0.1500244,0,0,0,0,0,0
2.699998,-0.4954499,-0.9552274,0,0,0,0,0,0,0,0,0,0,0,0,0,0,0,0,-0.04423334,-0.001249529,0.009746331,-0.1330566,-1.150635,-0.2254639,0,0,0,0,0,0
2.709998,-0.4954499,-0.9552274,0,0,0,0,0,0,0,0,0,0,0,0,0,1,0,0,0,0,0,-0.1044922,-1.10791,-0.1768799,0,0,0,0,0,0
2.719998,-0.4790651,-0.954171,0.01754869,0.05732573,0,0,0,0,0,0,0,0,0,0,0,1,0,0,-0.1279414,0.02348924,0.01324393,-0.1054688,-1.021362,-0.1422119,0,0,0,0,0,0
2.729998,-0.4311509,-0.9691007,0.07813499,0.286495,0,0,0,0,0,0,0,0,0,0,0,1,0,0,0,0,0,-0.1062012,-0.9835205,-0.1960449,0,0,0,0,0,0
2.739998,-0.4149139,-0.9681324,0.1234064,0.4435959,0,0,0,0,0,0,0,0,0,0,0,1,0,0,-0.085582,0.01245668,0.002076113,0.1184082,-0.9526367,-0.5675049,0,0,0,0,0,0
2.749998,-0.4072818,-0.9766853,0.1334983,0.4894938,0,0,0,0,0,0,0,0,0,0,0,1,0,0,0,0,0,0.1087646,-0.7998047,-0.5411377,0,0,0,0,0,0
2.759998,-0.3991828,-0.9762193,0.1398847,0.481067,0,0,0,0,0,0,0,0,0,0,0,1,0,0,0,0,0,0.1196289,-0.8341064,-0.4362793,0,0,0,0,0,0
2.769998,-0.3915487,-0.9848042,0.1089236,0.2914443,0,0,0,0,0,0,0,0,0,0,0,1,0,0,0.06397591,-0.01099586,0.01874294,0.1239014,-0.9000244,-0.3404541,0,0,0,0,0,0
2.779998,-0.3834635,-0.9843547,0.0335646,0.07442587,0,0,0,0,0,0,0,0,0,0,0,1,0,0,0,0,0,0.04260254,-0.9230957,-0.204834,0,0,0,0,0,0
2.789998,-0.3915487,-0.9848042,0,0,0,0,0,0,0,0,0,0,0,0,0,1,0,0,0,0,0,0.03320313,-0.9927979,-0.196167,0,0,0,0,0,0
2.799998,-0.3915487,-0.9848042,0,0,0,0,0,0,0,0,0,0,0,0,0,1,0,0,0,0,0,-0.09313965,-0.909668,-0.3572998,0,0,0,0,0,0
2.809998,-0.4091095,-1,0,0,0,0,0,0,0,0,0,0,0,0,0,0,0,0,0.1217042,-0.0167437,-0.002249153,-0.112793,-0.9594727,-0.3148193,0,0,0,0,0,0
2.819998,-0.4149139,-0.9681324,0,0,0,0,0,0,0,0,0,0,0,0,0,0,0,0,0,0,0,-0.1367188,-0.9998779,-0.2824707,0,0,0,0,0,0
2.829998,-0.3231793,-0.4936475,0,0,0,0,0,0,0,0,0,0,0,0,0,0,0,0,0,0,0,-0.1628418,-1.076416,-0.1619873,0,0,0,0,0,0
2.839998,-0.09309565,0.04231621,0,0,0,0,0,0,0,0,0,0,0,0,0,0,0,0,0.02898672,-0.005997253,-0.01349382,-0.1560059,-1.081177,-0.1794434,0,0,0,0,0,0
2.849998,-0.06152136,0.05007552,0,0,0,0,0,0,0,0,0,0,0,0,0,0,0,0,0,0,0,-0.09680176,-1.134644,-0.19104,0,0,0,0,0,0
2.859998,0,0,0,0,0,0,0,0,0,0,0,0,0,0,0,0,0,0,0,0,0,-0.1229248,-1.085693,-0.1402588,0,0,0,0,0,0
2.869998,0,0,0,0,0,0,0,0,0,0,0,0,0,0,0,1,0,0,-0.1089412,0.0344814,0.003997843,-0.1179199,-1.056396,-0.1593018,0,0,0,0,0,0
2.879998,0,0,0,0,0,0,0,0,0,0,0,0,0,0,0,1,0,0,0,0,0,-0.0847168,-0.9915771,-0.161377,0,0,0,0,0,0
2.889998,0,0,0,0,0,0,0,0,0,0,0,0,0,0,0,1,0,0,-0.07981502,0.07497075,0.0006920377,-0.1697998,-0.9832764,-0.06530762,0,0,0,0,0,0
2.899998,0,0,0,0,0,0,0,0,0,0,0,0,0,0,0,1,0,0,0,0,0,0.0838623,-0.9864502,-0.3795166,0,0,0,0,0,0
2.909998,0,0,0,0,0,0,0,0,0,0,0,0,0,0,0,1,0,0,0,0,0,0.1138916,-0.8300781,-0.5991211,0,0,0,0,0,0
2.919998,0,0,0,0,0,0,0,0,0,0,0,0,0,0,0,1,0,0,-0.01749341,-0.01124577,-0.01599398,0.03820801,-0.8039551,-0.5616455,0,0,0,0,0,0
2.929998,0,0,0,0,0,0,0,0,0,0,0,0,0,0,0,1,0,0,0,0,0,0.05224609,-0.8337402,-0.4338379,0,0,0,0,0,0
2.939998,0,0,0,0,0,0,0,0,0,0,0,0,0,0,0,1,0,0,0,0,0,0.0003662109,-0.9833984,-0.1381836,0,0,0,0,0,0
2.949998,0,0,0,0,0,0,0,0,0,0,0,0,0,0,0,1,0,0,0.03223786,0.01049605,0.0127452,0.02197266,-0.9827881,-0.2401123,0,0,0,0,0,0
2.959998,0,0,0,0,0,0,0,0,0,0,0,0,0,0,0,1,0,0,0,0,0,-0.01257324,-0.90979,-0.3162842,0,0,0,0,0,0
2.969998,0,0,0,0,0,0,0,0,0,0,0,0,0,0,0,1,0,0,0,0,0,-0.06201172,-0.862915,-0.3529053,0,0,0,0,0,0
2.979998,0,0,0,0,0,0,0,0,0,0,0,0,0,0,0,0,0,0,0.08921641,-0.02599021,-0.02324125,-0.07763672,-0.9609375,-0.3110352,0,0,0,0,0,0
2.989998,0,0,0,0,0,0,0,0,0,0,0,0,0,0,0,0,0,0,0,0,0,-0.1116943,-0.9820557,-0.2784424,0,0,0,0,0,0
2.999998,0,0,0,0,0,0,0,0,0,0,0,0,0,0,0,0,0,0,0,0,0,-0.1791992,-1.088745,-0.1845703,0,0,0,0,0,0
3.009998,0,0,0,0,0,0,0,0,0,0,0,0,0,0,0,0,0,0,0,0,0,-0.1253662,-1.130859,-0.1033936,0,0,0,0,0,0
3.019998,0,0,0,0,0,0,0,0,0,0,0,0,0,0,0,0,0,0,0,0,0,-0.0592041,-1.106079,-0.144165,0,0,0,0,0,0
3.029998,0,0,0,0,0,0,0,0,0,0,0,0,0,0,0,0,0,0,0,0,0,-0.1010742,-0.9957275,-0.2189941,0,0,0,0,0,0
3.039998,0,0,0,0,0,0,0,0,0,0,0,0,0,0,0,1,0,0,0,0,0,-0.1048584,-0.9654541,-0.2370605,0,0,0,0,0,0
3.049998,-0.04178552,-0.03321413,0,0,0,0,0,0,0,0,0,0,0,0,0,1,0,0,0,0,0,-0.07299805,-0.9417725,-0.2530518,0,0,0,0,0,0
3.059998,-0.15136,-0.1177244,-0.03587899,0.09738582,0,0,0,0,0,0,0,0,0,0,0,1,0,0,0,0,0,-0.1237793,-0.9936523,-0.2071533,0,0,0,0,0,0
3.069998,-0.2439935,-0.1910792,-0.06084495,0.1874024,0,0,0,0,0,0,0,0,0,0,0,1,0,0,-0.02449078,-0.003498683,-0.04323372,0.1424561,-0.958374,-0.5147705,0,0,0,0,0,0
3.079998,-0.2821859,-0.2263689,-0.06749592,0.1974881,0,0,0,0,0,0,0,0,0,0,0,1,0,0,0,0,0,0.1101074,-0.8927002,-0.5107422,0,0,0,0,0,0
3.089998,-0.3106884,-0.2530349,-0.07855936,0.2001997,0,0,0,0,0,0,0,0,0,0,0,1,0,0,0,0,0,0.09033203,-0.8939209,-0.4267578,0,0,0,0,0,0
3.099998,-0.3269742,-0.255752,-0.0722018,0.107327,0,0,0,0,0,0,0,0,0,0,0,1,0,0,0.1012201,-0.009747124,-0.008747418,0.0501709,-0.9858398,-0.2283936,0,0,0,0,0,0
3.109998,-0.3202614,-0.2187925,-0.04592003,0.04592003,0,0,0,0,0,0,0,0,0,0,0,1,0,0,0,0,0,0.06652832,-1.012695,-0.1818848,0,0,0,0,0,0
3.119998,-0.2539394,-0.09208794,-0.0172296,0.009778961,0,0,0,0,0,0,0,0,0,0,0,1,0,0,0,0,0,0.02075195,-0.9449463,-0.2735596,0,0,0,0,0,0
3.129997,-0.1061102,-0.01217658,0,0,0,0,0,0,0,0,0,0,0,0,0,0,0,0,0.0762151,-0.01874142,-0.002748741,-0.06420898,-0.8986816,-0.2922363,0,0,0,0,0,0
3.139997,0,0,0,0,0,0,0,0,0,0,0,0,0,0,0,0,0,0,0,0,0,-0.06262207,-0.9210205,-0.300293,0,0,0,0,0,0
3.149997,0,0,0,0,0,0,0,0,0,0,0,0,0,0,0,0,0,0,0,0,0,-0.1236572,-1.023071,-0.3786621,0,0,0,0,0,0
3.159997,0,0,0,0,0,0,0,0,0,0,0,0,0,0,0,0,0,0,0.09546406,-0.03073842,-0.007996988,-0.1412354,-0.9351807,-0.2041016,0,0,0,0,0,0
3.169997,0.004879327,0.09596009,0,0,0,0,0,0,0,0,0,0,0,0,0,0,0,0,0,0,0,-0.1160889,-1.004517,-0.1729736,0,0,0,0,0,0
3.179997,0.00898568,0.3264797,0,0,0,0,0,0,0,0,0,0,0,0,0,0,0,0,0,0,0,-0.07629395,-1.186646,-0.03491211,0,0,0,0,0,0
3.189997,-0.03915104,0.5943839,0,0,0,0,0,0,0,0,0,0,0,0,0,0,0,0,-0.02768151,0.002076113,0.02122249,-0.09375,-1.206299,-0.1206055,0,0,0,0,0,0
3.199997,-0.09438075,0.789023,0,0,0,0,0,0,0,0,0,0,0,0,0,0,0,0,0,0,0,-0.0423584,-1.170776,-0.1815186,0,0,0,0,0,0
3.209997,-0.1769445,1,-0.001479406,0.004210616,0,0,0,0,0,0,0,0,0,0,0,1,0,0,0,0,0,-0.07226563,-1.107178,-0.1331787,0,0,0,0,0,0
3.219997,-0.1927661,1,-0.02319446,0.1088355,0,0,0,0,0,0,0,0,0,0,0,1,0,0,-0.1434343,0.04447963,0.009495651,-0.1427002,-0.9970703,-0.04211426,0,0,0,0,0,0
3.229997,-0.2006854,1,-0.04112577,0.382786,0,0,0,0,0,0,0,0,0,0,0,1,0,0,0,0,0,0.002807617,-0.9324951,-0.3284912,0,0,0,0,0,0
3.239997,-0.2006854,1,-0.05360242,0.6039206,0,0,0,0,0,0,0,0,0,0,0,1,0,0,0,0,0,0.09289551,-0.7910156,-0.6358643,0,0,0,0,0,0
3.249997,-0.2086106,1,-0.05607122,0.7513545,0,0,0,0,0,0,0,0,0,0,0,1,0,0,0,0,0,0.08666992,-0.7510986,-0.5627441,0,0,0,0,0,0
3.259997,-0.2244794,1,-0.07197934,0.8069263,0,0,0,0,0,0,0,0,0,0,0,1,0,0,0,0,0,0.1091309,-0.7927246,-0.392334,0,0,0,0,0,0
3.269997,-0.2244794,1,-0.08090892,0.8899981,0,0,0,0,0,0,0,0,0,0,0,1,0,0,0,0,0,0.1003418,-0.8453369,-0.2791748,0,0,0,0,0,0
3.279997,-0.1927661,1,-0.09000989,0.9822818,0,0,0,0,0,0,0,0,0,0,0,1,0,0,0,0,0,0.0604248,-0.8781738,-0.2209473,0,0,0,0,0,0
3.289997,-0.1374799,1,-0.08240198,1,0,0,0,0,0,0,0,0,0,0,0,1,0,0,0,0,0,-0.01074219,-0.8612061,-0.21521,0,0,0,0,0,0
3.299997,-0.01960851,1,-0.035298,1,0,0,0,0,0,0,0,0,0,0,0,1,0,0,0,0,0,-0.01452637,-0.8812256,-0.2650146,0,0,0,0,0,0
3.309997,0.113854,1,0.06669273,1,0,0,0,0,0,0,0,0,0,0,0,0,0,0,0,0,0,-0.05847168,-0.9267578,-0.2650146,0,0,0,0,0,0
3.319997,0.2086106,1,0.1374799,1,0,0,0,0,0,0,0,0,0,0,0,0,0,0,0,0,0,-0.07116699,-0.9931641,-0.2634277,0,0,0,0,0,0
3.329997,0.336352,1,0.2403741,1,0,0,0,0,0,0,0,0,0,0,0,0,0,0,0,0,0,-0.1374512,-1.167969,-0.1303711,0,0,0,0,0,0
3.339997,0.4498426,1,0.336352,1,0,0,0,0,0,0,0,0,0,0,0,0,0,0,0.2076718,-0.01424464,0.05248024,-0.1618652,-1.25,0.04455566,0,0,0,0,0,0
3.349997,0.5072563,1,0.3766855,1,0,0,0,0,0,0,0,0,0,0,0,0,0,0,0,0,0,-0.1627197,-1.272217,0.01184082,0,0,0,0,0,0
3.359997,0.5884867,0.9968243,0.4172379,1,0,0,0,0,0,0,0,0,0,0,0,1,0,0,0,0,0,-0.1508789,-1.289551,-0.03417969,0,0,0,0,0,0
3.369997,0.6531526,0.965704,0.4416777,1,0,0,0,0,0,0,0,0,0,0,0,1,0,0,0,0,0,-0.07531738,-1.197266,-0.07006836,0,0,0,0,0,0
3.379997,0.6772434,0.9497437,0.4580168,1,0,0,0,0,0,0,0,0,0,0,0,1,0,0,0,0,0,-0.1242676,-1.003174,0.1381836,0,0,0,0,0,0
3.389997,0.6935343,0.9420841,0.4662001,1,0,0,0,0,0,0,0,0,0,0,0,1,0,0,0,0,0,0.004516602,-1.079102,-0.1573486,0,0,0,0,0,0
3.399997,0.6935343,0.9420841,0.4662001,1,0,0,0,0,0,0,0,0,0,0,0,1,0,0,0,0,0,0.1206055,-0.9206543,-0.3953857,0,0,0,0,0,0
3.409997,0.6935343,0.9420841,0.4662001,1,0,0,0,0,0,0,0,0,0,0,0,1,0,0,0,0,0,0.09082031,-0.838501,-0.3670654,0,0,0,0,0,0
3.419997,0.6929545,0.9332856,0.4662001,1,0,0,0,0,0,0,0,0,0,0,0,1,0,0,0,0,0,0.09741211,-0.8469238,-0.3243408,0,0,0,0,0,0
3.429997,0.6598403,0.9397725,0.4825947,1,0,0,0,0,0,0,0,0,0,0,0,1,0,0,0,0,0,0.02954102,-0.9071045,-0.1826172,0,0,0,0,0,0
3.439997,0.579634,0.9873765,0.4908059,1,0,0,0,0,0,0,0,0,0,0,0,1,0,0,0,0,0,-0.03771973,-0.9372559,-0.1103516,0,0,0,0,0,0
3.449997,0.4091095,1,0.4825947,1,0,0,0,0,0,0,0,0,0,0,0,1,0,0,0,0,0,0.0144043,-1,-0.1790771,0,0,0,0,0,0
3.459997,0.2483314,1,0.4580168,1,0,0,0,0,0,0,0,0,0,0,0,1,0,0,0,0,0,-0.02148438,-0.9840088,-0.2653809,0,0,0,0,0,0
3.469997,0.1374799,1,0.4172379,1,0,0,0,0,0,0,0,0,0,0,0,1,0,0,0,0,0,-0.06530762,-0.9650879,-0.2792969,0,0,0,0,0,0
3.479997,-0.04314433,1,0.3283107,1,0,0,0,0,0,0,0,0,0,0,0,0,0,0,0,0,0,-0.04919434,-0.989624,-0.2406006,0,0,0,0,0,0
3.489997,-0.2403741,1,0.2562958,1,0,0,0,0,0,0,0,0,0,0,0,0,0,0,0,0,0,-0.04663086,-1.021729,-0.2631836,0,0,0,0,0,0
3.499997,-0.3605264,1,0.2403741,1,0,0,0,0,0,0,0,0,0,0,0,0,0,0,0,0,0,-0.07189941,-1.024658,-0.2706299,0,0,0,0,0,0
3.509997,-0.5309846,1,0.2324234,1,0,0,0,0,0,0,0,0,0,0,0,0,0,0,0,0,0,-0.08996582,-1.032959,-0.07897949,0,0,0,0,0,0
3.519997,-0.6311145,0.885148,0.2324234,1,0,0,0,0,0,0,0,0,0,0,0,0,0,0,0,0,0,-0.08789063,-1.12085,-0.08190918,0,0,0,0,0,0
3.529997,-0.6360638,0.7297174,0.2324234,1,0,0,0,0,0,0,0,0,0,0,0,0,0,0,-0.103461,-0.01024614,0.02723974,-0.1130371,-1.103516,-0.1087646,0,0,0,0,0,0
3.539997,-0.5726953,0.5802806,0.2324234,1,0,0,0,0,0,0,0,0,0,0,0,1,0,0,0,0,0,-0.06628418,-1.095581,-0.1184082,0,0,0,0,0,0
3.549997,-0.3624837,0.2760197,0.2642672,1,0,0,0,0,0,0,0,0,0,0,0,1,0,0,0,0,0,-0.1602783,-0.8551025,0.1551514,0,0,0,0,0,0
3.559997,-0.1181411,0.04841847,0.2802319,1,0,0,0,0,0,0,0,0,0,0,0,1,0,0,0,0,0,-0.09570313,-1.090698,0.03234863,0,0,0,0,0,0
3.569997,0,0,0.2802319,1,0,0,0,0,0,0,0,0,0,0,0,1,0,0,0,0,0,0.04846191,-1.033447,-0.4016113,0,0,0,0,0,0
3.579997,0,0,0.2802319,1,0,0,0,0,0,0,0,0,0,0,0,1,0,0,-0.1634385,0.003748589,-0.01374483,0.0748291,-0.8903809,-0.5446777,0,0,0,0,0,0
3.589997,0,0,0.2802319,1,0,0,0,0,0,0,0,0,0,0,0,1,0,0,0,0,0,0.0814209,-0.8953857,-0.5144043,0,0,0,0,0,0
3.599997,0,0,0.2962267,1,0,0,0,0,0,0,0,0,0,0,0,1,0,0,0,0,0,0.03466797,-0.8786621,-0.4160156,0,0,0,0,0,0
3.609997,-0.06444506,-0.2139576,0.3283107,1,0,0,0,0,0,0,0,0,0,0,0,1,0,0,-0.01524426,-0.004998118,-0.02249153,-0.004516602,-0.8435059,-0.1829834,0,0,0,0,0,0
3.619997,-0.1019603,-0.3429572,0.3078103,0.9078456,0,0,0,0,0,0,0,0,0,0,0,1,0,0,0,0,0,0.09289551,-0.8444824,-0.2086182,0,0,0,0,0,0
3.629997,-0.1728741,-0.5468467,0.2175117,0.6672817,0,0,0,0,0,0,0,0,0,0,0,1,0,0,0,0,0,0.06848145,-0.807251,-0.3624268,0,0,0,0,0,0
3.639997,-0.2760183,-0.7524334,0.1065206,0.3970312,0,0,0,0,0,0,0,0,0,0,0,0,0,0,0.1866797,-0.02449078,-0.02324125,-0.04650879,-0.8359375,-0.3691406,0,0,0,0,0,0
3.649997,-0.3691294,-0.8664827,0.03132284,0.1903465,0,0,0,0,0,0,0,0,0,0,0,0,0,0,0,0,0,-0.01452637,-0.9547119,-0.305542,0,0,0,0,0,0
3.659997,-0.5052344,-0.9826212,0,0,0,0,0,0,0,0,0,0,0,0,0,0,0,0,0,0,0,-0.06958008,-1.056885,-0.1160889,0,0,0,0,0,0
3.669997,-0.5929316,-0.9351605,0,0,0,0,0,0,0,0,0,0,0,0,0,0,0,0,0,0,0,-0.1569824,-1.090576,-0.0925293,0,0,0,0,0,0
3.679997,-0.6323221,-0.9027491,0,0,0,0,0,0,0,0,0,0,0,0,0,0,0,0,0,0,0,-0.05493164,-1.166748,-0.1732178,0,0,0,0,0,0
3.689997,-0.6881471,-0.8631671,0,0,0,0,0,0,0,0,0,0,0,0,0,0,0,0,0,0,0,-0.01818848,-1.125977,-0.1804199,0,0,0,0,0,0
3.699997,-0.7274072,-0.8228048,0,0,0,0,0,0,0,0,0,0,0,0,0,0,0,0,0,0,0,-0.1077881,-1.196899,-0.01989746,0,0,0,0,0,0
3.709997,-0.7510855,-0.7987735,-0.0383198,0.02849421,0,0,0,0,0,0,0,0,0,0,0,0,0,0,0,0,0,-0.07629395,-1.181519,-0.09179688,0,0,0,0,0,0
3.719997,-0.766288,-0.7742289,-0.1133197,0.1364461,0,0,0,0,0,0,0,0,0,0,0,1,0,0,0,0,0,-0.1209717,-1.034546,-0.173584,0,0,0,0,0,0
3.729997,-0.766288,-0.7742289,-0.1897582,0.4161365,0,0,0,0,0,0,0,0,0,0,0,1,0,0,-0.3225305,0.1294311,-0.008515947,-0.2473145,-0.9029541,-0.1293945,0,0,0,0,0,0
3.739997,-0.7570676,-0.764995,-0.2053545,0.5944474,0,0,0,0,0,0,0,0,0,0,0,1,0,0,0,0,0,-0.0246582,-0.8658447,-0.4267578,0,0,0,0,0,0
3.749997,-0.5927174,-0.6156613,-0.2084325,0.7844643,0,0,0,0,0,0,0,0,0,0,0,1,0,0,0,0,0,0.1209717,-0.7740479,-0.4720459,0,0,0,0,0,0
3.759997,-0.4060729,-0.4707572,-0.1934594,0.7928044,0,0,0,0,0,0,0,0,0,0,0,1,0,0,0,0,0,0.1412354,-0.8248291,-0.3546143,0,0,0,0,0,0
3.769997,-0.02058913,-0.05934514,-0.1374775,0.7171123,0,0,0,0,0,0,0,0,0,0,0,1,0,0,0,0,0,0.1993408,-0.9221191,-0.2926025,0,0,0,0,0,0
3.779997,0.07054136,0.01197872,-0.05638328,0.4477496,0,0,0,0,0,0,0,0,0,0,0,1,0,0,0,0,0,0.1633301,-0.8613281,-0.3554688,0,0,0,0,0,0
3.789997,0.5315558,0.2006535,-0.003056701,0.04992612,0,0,0,0,0,0,0,0,0,0,0,1,0,0,0.2061724,0.08071961,0.09371471,0.1553955,-0.854126,-0.1937256,0,0,0,0,0,0
3.799997,0.8428781,0.4156127,0,0,0,0,0,0,0,0,0,0,0,0,0,1,0,0,0,0,0,0.08984375,-0.9666748,-0.0559082,0,0,0,0,0,0
3.809997,0.9747131,0.5211732,0.02969467,-0.07211562,0,0,0,0,0,0,0,0,0,0,0,1,0,0,0,0,0,-0.1855469,-0.8331299,-0.4536133,0,0,0,0,0,0
3.819997,0.9747131,0.5211732,0.09775314,-0.468541,0,0,0,0,0,0,0,0,0,0,0,0,0,0,0.294913,0.004248747,0.06448098,-0.04797363,-1.141479,-0.2348633,0,0,0,0,0,0
3.829997,0.9747131,0.5211732,0.1158591,-0.7437409,0,0,0,0,0,0,0,0,0,0,0,0,0,0,0,0,0,-0.1306152,-1.236084,0.002563477,0,0,0,0,0,0
3.839997,0.9747131,0.5211732,0.1217254,-1,0,0,0,0,0,0,0,0,0,0,0,0,0,0,0,0,0,-0.2171631,-1.151978,0.05078125,0,0,0,0,0,0
3.849997,0.9684711,0.5619524,0.1217254,-1,0,0,0,0,0,0,0,0,0,0,0,0,0,0,0,0,0,-0.1862793,-1.239136,-0.06274414,0,0,0,0,0,0
3.859997,0.919205,0.6167826,0.1217254,-1,0,0,0,0,0,0,0,0,0,0,0,0,0,0,0,0,0,-0.1439209,-1.134155,-0.1555176,0,0,0,0,0,0
3.869997,0.7332068,0.6783143,0.07454614,-1,0,0,0,0,0,0,0,0,0,0,0,0,0,0,0,0,0,-0.1062012,-1.005493,-0.241333,0,0,0,0,0,0
3.879997,0.4168131,0.6496277,0,-1,0,0,0,0,0,0,0,0,0,0,0,0,0,0,0,0,0,-0.03186035,-1.01416,-0.2108154,0,0,0,0,0,0
3.889997,0.1763826,0.6011409,-0.035298,-1,0,0,0,0,0,0,0,0,0,0,0,0,0,0,0,0,0,0.03991699,-0.9907227,-0.1290283,0,0,0,0,0,0
3.899997,-0.1363419,0.5348798,-0.05099206,-1,0,0,0,0,0,0,0,0,0,0,0,0,0,0,0,0,0,0.04943848,-0.9927979,-0.1164551,0,0,0,0,0,0
3.909997,-0.3809274,0.5260426,-0.05099206,-1,0,0,0,0,0,0,0,0,0,0,0,0,0,0,-0.07035717,0.01268736,0.03275645,-0.02880859,-1.034058,-0.1281738,0,0,0,0,0,0
3.919997,-0.5182906,0.5332054,-0.05099206,-1,0,0,0,0,0,0,0,0,0,0,0,0,0,0,0,0,0,-0.05334473,-1.018677,-0.15979,0,0,0,0,0,0
3.929997,-0.7573472,0.555388,-0.05099206,-1,0,0,0,0,0,0,0,0,0,0,0,0,0,0,0,0,0,-0.05358887,-1.02063,-0.2177734,0,0,0,0,0,0
3.939997,-0.9847108,0.5382023,-0.04314433,-1,0,0,0,0,0,0,0,0,0,0,0,0,0,0,-0.1109582,-0.005248024,0.01024614,-0.04638672,-0.9691162,-0.2971191,0,0,0,0,0,0
3.949997,-1,0.4416777,-0.04314433,-1,0,0,0,0,0,0,0,0,0,0,0,0,0,0,0,0,0,-0.08581543,-0.9504395,-0.2753906,0,0,0,0,0,0
3.959997,-1,0.3283107,-0.04314433,-1,0,0,0,0,0,0,0,0,0,0,0,0,0,0,0,0,0,-0.1286621,-0.9556885,-0.2757568,0,0,0,0,0,0
3.969997,-1,0.2483314,-0.04314433,-1,0,0,0,0,0,0,0,0,0,0,0,0,0,0,-0.08321866,0.001999247,-0.04998118,-0.05688477,-0.9609375,-0.2746582,0,0,0,0,0,0
3.979997,-1,0.1927661,-0.04314433,-1,0,0,0,0,0,0,0,0,0,0,0,0,0,0,0,0,0,-0.06213379,-0.9621582,-0.2563477,0,0,0,0,0,0
3.989997,-1,0.113854,-0.04314433,-1,0,0,0,0,0,0,0,0,0,0,0,0,0,0,0,0,0,-0.05334473,-0.9804688,-0.2409668,0,0,0,0,0,0
3.999997,-1,0.05884144,-0.05099206,-1,0,0,0,0,0,0,0,0,0,0,0,0,0,0,0,0,0,-0.04321289,-1.00415,-0.2194824,0,0,0,0,0,0
4.009997,-1,-0.01176485,-0.05884144,-1,0,0,0,0,0,0,0,0,0,0,0,0,0,0,0,0,0,-0.04089355,-1.029541,-0.2042236,0,0,0,0,0,0
4.019997,-0.9268596,-0.08143955,-0.06669273,-1,0,0,0,0,0,0,0,0,0,0,0,0,0,0,0,0,0,-0.02563477,-1.011963,-0.2103271,0,0,0,0,0,0
4.029997,-0.7715625,-0.1242027,-0.08240198,-1,0,0,0,0,0,0,0,0,0,0,0,0,0,0,0,0,0,-0.04431152,-0.9825439,-0.2093506,0,0,0,0,0,0
4.039998,-0.4901104,-0.1405212,-0.113854,-1,0,0,0,0,0,0,0,0,0,0,0,1,0,0,0,0,0,-0.003540039,-0.9831543,-0.2265625,0,0,0,0,0,0
4.049998,-0.1249879,-0.0826191,-0.1453634,-1,0,0,0,0,0,0,0,0,0,0,0,1,0,0,-0.1070352,0.02145317,0.03944615,0.02124023,-0.9968262,-0.2597656,0,0,0,0,0,0
4.059998,0,0,-0.1611441,-1,0,0,0,0,0,0,0,0,0,0,0,1,0,0,0,0,0,-0.02966309,-0.8966064,-0.3161621,0,0,0,0,0,0
4.069998,0.05323202,0.02151933,-0.1769445,-1,0,0,0,0,0,0,0,0,0,0,0,1,0,0,0,0,0,-0.02111816,-0.7619629,-0.3288574,0,0,0,0,0,0
4.079998,0.3839292,0.2570657,-0.1769445,-1,0,0,0,0,0,0,0,0,0,0,0,1,0,0,0.004748212,-0.001999247,0.0337373,0.05310059,-0.8776855,-0.3123779,0,0,0,0,0,0
4.089999,0.6386239,0.4799126,-0.1848525,-1,0,0,0,0,0,0,0,0,0,0,0,1,0,0,0,0,0,0.01220703,-0.9379883,-0.3144531,0,0,0,0,0,0
4.099999,0.8725189,0.6972183,-0.1848525,-1,0,0,0,0,0,0,0,0,0,0,0,1,0,0,0,0,0,-0.1815186,-0.6422119,-0.4503174,0,0,0,0,0,0
4.109999,0.8812595,0.69783,-0.1848525,-1,0,0,0,0,0,0,0,0,0,0,0,1,0,0,0,0,0,-0.1138916,-0.8093262,-0.4460449,0,0,0,0,0,0
4.119999,0.8725189,0.6972183,-0.1848525,-1,0,0,0,0,0,0,0,0,0,0,0,1,0,0,0,0,0,0,-1.045044,-0.2424316,0,0,0,0,0,0
4.13,0.8725189,0.6972183,-0.1848525,-1,0,0,0,0,0,0,0,0,0,0,0,1,0,0,0.08271211,-0.03523386,-0.009245765,-0.01062012,-1.098999,-0.2164307,0,0,0,0,0,0
4.14,0.8731322,0.7056823,-0.1848525,-1,0,0,0,0,0,0,0,0,0,0,0,1,0,0,0,0,0,-0.03015137,-1.049194,-0.1972656,0,0,0,0,0,0
4.15,0.8333557,0.7536087,-0.1848525,-1,0,0,0,0,0,0,0,0,0,0,0,1,0,0,0,0,0,-0.02746582,-1.0896,-0.2175293,0,0,0,0,0,0
4.16,0.7469335,0.8587738,-0.1848525,-1,0,0,0,0,0,0,0,0,0,0,0,1,0,0,0.002537472,-0.009227169,0.01176464,-0.0390625,-1.060547,-0.1707764,0,0,0,0,0,0
4.170001,0.6239545,0.9021508,-0.1848525,-1,0,0,0,0,0,0,0,0,0,0,0,1,0,0,0,0,0,-0.07727051,-1.004395,-0.2220459,0,0,0,0,0,0
4.180001,0.3232575,0.8996684,-0.1848525,-1,0,0,0,0,0,0,0,0,0,0,0,0,0,0,0,0,0,-0.08227539,-0.9908447,-0.239502,0,0,0,0,0,0
4.190001,-0.01130802,0.7877921,-0.1848525,-1,0,0,0,0,0,0,0,0,0,0,0,0,0,0,-0.04348363,-0.002499059,-0.02823937,-0.08361816,-0.9705811,-0.1463623,0,0,0,0,0,0
4.200001,-0.2390514,0.6509553,-0.1927661,-1,0,0,0,0,0,0,0,0,0,0,0,0,0,0,0,0,0,-0.04345703,-0.9460449,-0.175415,0,0,0,0,0,0
4.210001,-0.5642285,0.4969695,-0.1927661,-1,0,0,0,0,0,0,0,0,0,0,0,0,0,0,0,0,0,-0.02453613,-1.028076,-0.2446289,0,0,0,0,0,0
4.220002,-0.935187,0.4616746,-0.1927661,-1,0,0,0,0,0,0,0,0,0,0,0,0,0,0,-0.01749341,0.008246895,0.001499435,0.001708984,-1.007446,-0.1497803,0,0,0,0,0,0
4.230002,-1,0.4091095,-0.1927661,-1,0,0,0,0,0,0,0,0,0,0,0,0,0,0,0,0,0,-0.005737305,-1.061279,-0.1973877,0,0,0,0,0,0
4.240002,-1,0.336352,-0.1927661,-1,0,0,0,0,0,0,0,0,0,0,0,0,0,0,0,0,0,-0.0645752,-1.066162,-0.2684326,0,0,0,0,0,0
4.250002,-1,0.2882255,-0.2086106,-1,0,0,0,0,0,0,0,0,0,0,0,1,0,0,-0.122194,-0.004997711,0.00674691,-0.09509277,-1.019409,-0.2088623,0,0,0,0,0,0
4.260003,-1,0.2802319,-0.2403741,-1,0,0,0,0,0,0,0,0,0,0,0,1,0,0,-0.1229537,0.0254904,-0.001999247,-0.2150879,-0.9176025,-0.00378418,0,0,0,0,0,0
4.270003,-1,0.2722459,-0.2722459,-1,0,0,0,0,0,0,0,0,0,0,0,1,0,0,0,0,0,-0.08483887,-1.043579,-0.2124023,0,0,0,0,0,0
4.280003,-1,0.2722459,-0.3202776,-1,0,0,0,0,0,0,0,0,0,0,0,1,0,0,0,0,0,-0.0144043,-0.8952637,-0.460083,0,0,0,0,0,0
4.290003,-1,0.2722459,-0.3686016,-1,0,0,0,0,0,0,0,0,0,0,0,1,0,0,-0.03998494,-0.002499059,-0.02249153,-0.05358887,-0.8626709,-0.4207764,0,0,0,0,0,0
4.300004,-1,0.2722459,-0.3928797,-1,0,0,0,0,0,0,0,0,0,0,0,1,0,0,0,0,0,-0.0234375,-0.8448486,-0.3892822,0,0,0,0,0,0
4.310004,-1,0.2483314,-0.4416777,-1,0,0,0,0,0,0,0,0,0,0,0,1,0,0,0,0,0,-0.02954102,-0.9450684,-0.2926025,0,0,0,0,0,0
4.320004,-1,0.2244794,-0.4893174,-0.9905694,0,0,0,0,0,0,0,0,0,0,0,1,0,0,0.006228339,-0.005074943,-0.0133794,-0.01574707,-0.9897461,-0.2874756,0,0,0,0,0,0
4.330004,-1,0.2165419,-0.5211732,-0.9747131,0,0,0,0,0,0,0,0,0,0,0,1,0,0,0,0,0,-0.03759766,-0.9873047,-0.2827148,0,0,0,0,0,0
4.340004,-1,0.1769445,-0.5774385,-0.9517779,0,0,0,0,0,0,0,0,0,0,0,1,0,0,0,0,0,-0.05883789,-0.9859619,-0.2769775,0,0,0,0,0,0
4.350005,-1,0.1217254,-0.6580837,-0.9133403,0,0,0,0,0,0,0,0,0,0,0,1,0,0,-0.007843095,-0.0006920377,-0.02029977,-0.04797363,-0.9880371,-0.2600098,0,0,0,0,0,0
4.360005,-1,0.08240198,-0.7141563,-0.8737444,0,0,0,0,0,0,0,0,0,0,0,1,0,0,0,0,0,-0.04614258,-0.9890137,-0.2624512,0,0,0,0,0,0
4.370005,-1,0.01176485,-0.7774033,-0.8092968,0,0,0,0,0,0,0,0,0,0,0,1,0,0,0,0,0,-0.04309082,-0.9753418,-0.2910156,0,0,0,0,0,0
4.380005,-1,-0.05099206,-0.8339776,-0.7621517,0,0,0,0,0,0,0,0,0,0,0,1,0,0,-0.004998118,0.001749341,-0.02274144,-0.04394531,-0.9737549,-0.2751465,0,0,0,0,0,0
4.390006,-1,-0.07454614,-0.8656361,-0.7220283,0,0,0,0,0,0,0,0,0,0,0,1,0,0,0,0,0,-0.02746582,-0.9786377,-0.2799072,0,0,0,0,0,0
4.400006,-1,-0.09026043,-0.8963585,-0.6652973,0,0,0,0,0,0,0,0,0,0,0,1,0,0,0,0,0,-0.03063965,-0.9606934,-0.2995605,0,0,0,0,0,0
4.410006,-1,-0.09812176,-0.9286237,-0.625725,0,0,0,0,0,0,0,0,0,0,0,1,0,0,0,0,0,-0.03808594,-0.9329834,-0.3041992,0,0,0,0,0,0
4.420006,-1,-0.09812176,-0.9529006,-0.5940678,0,0,0,0,0,0,0,0,0,0,0,1,0,0,0,0,0,-0.04663086,-0.9244385,-0.3212891,0,0,0,0,0,0
4.430007,-1,-0.09026043,-0.9841844,-0.5299455,0,0,0,0,0,0,0,0,0,0,0,1,0,0,0,0,0,-0.04321289,-0.9445801,-0.3007813,0,0,0,0,0,0
4.440007,-1,-0.003921574,-1,-0.4253754,0,0,0,0,0,0,0,0,0,0,0,1,0,0,0,0,0,-0.04284668,-0.9517822,-0.2910156,0,0,0,0,0,0
4.450007,-1,0.07454614,-1,-0.3202776,0,0,0,0,0,0,0,0,0,0,0,1,0,0,0,0,0,-0.05603027,-0.9437256,-0.291626,0,0,0,0,0,0
4.460007,-1,0.2006854,-1,-0.113854,0,0,0,0,0,0,0,0,0,0,0,1,0,0,0,0,0,-0.07409668,-0.9417725,-0.2908936,0,0,0,0,0,0
4.470007,-1,0.2244794,-1,0.1690417,0,0,0,0,0,0,0,0,0,0,0,1,0,0,0,0,0,-0.07946777,-0.9822998,-0.2589111,0,0,0,0,0,0
4.480008,-1,0.1927661,-1,0.4253754,0,0,0,0,0,0,0,0,0,0,0,1,0,0,0.1238747,-0.03021898,-0.01914638,0.004394531,-0.9844971,-0.2941895,0,0,0,0,0,0
4.490008,-1,0.09812176,-1,0.5320019,0,0,0,0,0,0,0,0,0,0,0,1,0,0,0,0,0,-0.002197266,-0.979126,-0.2453613,0,0,0,0,0,0
4.500008,-1,-0.1059862,-0.9900852,0.6213085,0,0,0,0,0,0,0,0,0,0,0,1,0,0,0,0,0,-0.02453613,-1.0354,-0.1922607,0,0,0,0,0,0
4.510008,-1,-0.3283107,-0.9415066,0.6850963,0,0,0,0,0,0,0,0,0,0,0,1,0,0,0.1190305,-0.02375996,-0.02006909,0.003417969,-1.049683,-0.1831055,0,0,0,0,0,0
4.520009,-0.9790874,-0.4479225,-0.8906124,0.7068986,0,0,0,0,0,0,0,0,0,0,0,1,0,0,0,0,0,0.0111084,-1.0625,-0.2030029,0,0,0,0,0,0
4.530009,-0.9406446,-0.5437481,-0.8743551,0.7226405,0,0,0,0,0,0,0,0,0,0,0,1,0,0,0,0,0,0.008178711,-1.055298,-0.2211914,0,0,0,0,0,0
4.540009,-0.8915312,-0.5983165,-0.8668616,0.7390295,0,0,0,0,0,0,0,0,0,0,0,1,0,0,0,0,0,-0.01159668,-0.9605713,-0.2481689,0,0,0,0,0,0
4.550009,-0.8669578,-0.6215177,-0.8587738,0.7469335,0,0,0,0,0,0,0,0,0,0,0,1,0,0,0,0,0,-0.0168457,-0.9312744,-0.2456055,0,0,0,0,0,0
4.560009,-0.8506709,-0.637014,-0.8507007,0.7548471,0,0,0,0,0,0,0,0,0,0,0,1,0,0,0,0,0,-0.02661133,-0.9221191,-0.2365723,0,0,0,0,0,0
4.57001,-0.8506709,-0.637014,-0.8426419,0.7627706,0,0,0,0,0,0,0,0,0,0,0,1,0,0,0.0974633,-0.005747836,0.01299511,-0.04003906,-0.9343262,-0.2242432,0,0,0,0,0,0
4.58001,-0.8506709,-0.637014,-0.8345971,0.7707045,0,0,0,0,0,0,0,0,0,0,0,1,0,0,0,0,0,-0.04724121,-0.9470215,-0.2114258,0,0,0,0,0,0
4.59001,-0.882104,-0.5893879,-0.8345971,0.7707045,0,0,0,0,0,0,0,0,0,0,0,1,0,0,0,0,0,-0.04614258,-0.9351807,-0.2189941,0,0,0,0,0,0
4.60001,-0.920023,-0.5014718,-0.8259454,0.7700843,0,0,0,0,0,0,0,0,0,0,0,1,0,0,0.1007121,-0.005997742,0.009496424,-0.05236816,-0.942749,-0.2163086,0,0,0,0,0,0
4.610011,-0.9596007,-0.4225402,-0.8259454,0.7700843,0,0,0,0,0,0,0,0,0,0,0,1,0,0,0,0,0,-0.04907227,-0.9553223,-0.203125,0,0,0,0,0,0
4.620011,-1,-0.2562958,-0.8259454,0.7700843,0,0,0,0,0,0,0,0,0,0,0,1,0,0,0,0,0,-0.0435791,-0.9768066,-0.1960449,0,0,0,0,0,0
4.630011,-1,-0.08240198,-0.8173026,0.7694606,0,0,0,0,0,0,0,0,0,0,0,1,0,0,0,0,0,-0.04614258,-0.9951172,-0.1984863,0,0,0,0,0,0
4.640011,-1,0.05099206,-0.8173026,0.7694606,0,0,0,0,0,0,0,0,0,0,0,1,0,0,0,0,0,-0.03466797,-1.030151,-0.1812744,0,0,0,0,0,0
4.650012,-1,0.2403741,-0.8179268,0.778028,0,0,0,0,0,0,0,0,0,0,0,1,0,0,0,0,0,-0.02307129,-1.054077,-0.1623535,0,0,0,0,0,0
4.660012,-1,0.3928797,-0.8173026,0.7694606,0,0,0,0,0,0,0,0,0,0,0,1,0,0,0.00899649,0.02514404,0.03437121,-0.02880859,-1.06189,-0.1507568,0,0,0,0,0,0
4.670012,-1,0.4743927,-0.8179268,0.778028,0,0,0,0,0,0,0,0,0,0,0,1,0,0,0,0,0,-0.04174805,-1.072021,-0.1419678,0,0,0,0,0,0
4.680012,-0.9973595,0.5968135,-0.8179268,0.778028,0,0,0,0,0,0,0,0,0,0,0,1,0,0,0,0,0,-0.05053711,-1.104248,-0.1347656,0,0,0,0,0,0
4.690012,-0.9508898,0.6941094,-0.8173026,0.7694606,0,0,0,0,0,0,0,0,0,0,0,1,0,0,-0.09496424,0.03723598,0.02998871,-0.07751465,-1.073364,-0.1434326,0,0,0,0,0,0
4.700013,-0.9104943,0.7420328,-0.8246963,0.7529836,0,0,0,0,0,0,0,0,0,0,0,1,0,0,0,0,0,-0.08544922,-1.000122,-0.1760254,0,0,0,0,0,0
4.710013,-0.8543524,0.8062198,-0.870672,0.6718884,0,0,0,0,0,0,0,0,0,0,0,1,0,0,0,0,0,-0.0715332,-0.9511719,-0.2012939,0,0,0,0,0,0
4.720013,-0.8302338,0.8302338,-0.9027491,0.6323221,0,0,0,0,0,0,0,0,0,0,0,1,0,0,0,0,0,-0.07141113,-0.9538574,-0.2054443,0,0,0,0,0,0
4.730013,-0.8136096,0.8376572,-0.9512189,0.5691394,0,0,0,0,0,0,0,0,0,0,0,1,0,0,0,0,0,-0.03186035,-0.9820557,-0.2116699,0,0,0,0,0,0
4.740014,-0.8136096,0.8376572,-0.9747131,0.5211732,0,0,0,0,0,0,0,0,0,0,0,1,0,0,0,0,0,-0.0135498,-1.034668,-0.1895752,0,0,0,0,0,0
4.750014,-0.8136096,0.8376572,-0.9821059,0.4970172,0,0,0,0,0,0,0,0,0,0,0,1,0,0,0,0,0,-0.02770996,-1.04834,-0.1928711,0,0,0,0,0,0
4.760014,-0.8698937,0.7817017,-0.9900665,0.4811167,0,0,0,0,0,0,0,0,0,0,0,1,0,0,0,0,0,-0.05163574,-1.047974,-0.2224121,0,0,0,0,0,0
4.770014,-0.9485974,0.6604159,-1,0.481615,0,0,0,0,0,0,0,0,0,0,0,1,0,0,-0.07081853,-0.0002306792,0.003690868,-0.05932617,-1.029541,-0.2354736,0,0,0,0,0,0
4.780015,-1,0.3847782,-1,0.481615,0,0,0,0,0,0,0,0,0,0,0,1,0,0,-0.07972648,-0.008497493,-0.01599528,-0.0489502,-0.982666,-0.2567139,0,0,0,0,0,0
4.790015,-1,0.2403741,-1,0.481615,0,0,0,0,0,0,0,0,0,0,0,1,0,0,0,0,0,-0.02734375,-0.9770508,-0.2492676,0,0,0,0,0,0
4.800015,-1,0.01960851,-1,0.481615,0,0,0,0,0,0,0,0,0,0,0,1,0,0,0,0,0,-0.03186035,-0.9471436,-0.2456055,0,0,0,0,0,0
4.810015,-1,-0.1217254,-1,0.481615,0,0,0,0,0,0,0,0,0,0,0,1,0,0,0,0,0,-0.01757813,-0.9422607,-0.2381592,0,0,0,0,0,0
4.820015,-1,-0.2244794,-1,0.4821076,0,0,0,0,0,0,0,0,0,0,0,1,0,0,0,0,0,-0.03491211,-0.9407959,-0.237793,0,0,0,0,0,0
4.830016,-0.9882084,-0.2795331,-1,0.481615,0,0,0,0,0,0,0,0,0,0,0,1,0,0,0,0,0,-0.05114746,-0.9421387,-0.2536621,0,0,0,0,0,0
4.840016,-0.9893057,-0.3034922,-1,0.4821076,0,0,0,0,0,0,0,0,0,0,0,1,0,0,-0.01591687,-0.006689698,-0.01545551,-0.05773926,-0.9544678,-0.2655029,0,0,0,0,0,0
4.850016,-0.9896863,-0.3114949,-1,0.4821076,0,0,0,0,0,0,0,0,0,0,0,1,0,0,0,0,0,-0.05700684,-0.9500732,-0.2669678,0,0,0,0,0,0
4.860016,-0.9896863,-0.3114949,-1,0.4821076,0,0,0,0,0,0,0,0,0,0,0,1,0,0,0,0,0,-0.05603027,-0.9316406,-0.2606201,0,0,0,0,0,0
4.870017,-0.9805813,-0.3111081,-1,0.4821076,0,0,0,0,0,0,0,0,0,0,0,1,0,0,0.0232986,-0.007843095,-0.004152226,-0.04797363,-0.9267578,-0.2573242,0,0,0,0,0,0
4.880017,-0.9801954,-0.3031126,-1,0.4821076,0,0,0,0,0,0,0,0,0,0,0,1,0,0,0,0,0,-0.04577637,-0.9453125,-0.2468262,0,0,0,0,0,0
4.890017,-0.9875154,-0.2635998,-1,0.4821076,0,0,0,0,0,0,0,0,0,0,0,1,0,0,0,0,0,-0.03063965,-0.9812012,-0.2294922,0,0,0,0,0,0
4.900017,-0.9948004,-0.216261,-1,0.4821076,0,0,0,0,0,0,0,0,0,0,0,1,0,0,0,0,0,-0.01989746,-0.9888916,-0.2252197,0,0,0,0,0,0
4.910017,-0.9942525,-0.2004224,-1,0.4821076,0,0,0,0,0,0,0,0,0,0,0,1,0,0,0,0,0,-0.02368164,-1.010742,-0.2218018,0,0,0,0,0,0
4.920018,-0.9937412,-0.1846081,-1,0.4821076,0,0,0,0,0,0,0,0,0,0,0,1,0,0,0,0,0,-0.02697754,-1.019409,-0.2301025,0,0,0,0,0,0
4.930018,-1,-0.1769445,-1,0.4821076,0,0,0,0,0,0,0,0,0,0,0,1,0,0,0,0,0,-0.03967285,-1.018066,-0.2213135,0,0,0,0,0,0
4.940018,-1,-0.1690417,-1,0.4821076,0,0,0,0,0,0,0,0,0,0,0,1,0,0,0,0,0,-0.04089355,-1.011353,-0.2215576,0,0,0,0,0,0
4.950018,-1,-0.1611441,-1,0.4821076,0,0,0,0,0,0,0,0,0,0,0,1,0,0,0,0,0,-0.03637695,-0.9954834,-0.2060547,0,0,0,0,0,0
4.960019,-1,-0.1453634,-1,0.4903153,0,0,0,0,0,0,0,0,0,0,0,1,0,0,0,0,0,-0.04394531,-0.9849854,-0.2053223,0,0,0,0,0,0
4.970019,-1,-0.1453634,-1,0.4903153,0,0,0,0,0,0,0,0,0,0,0,1,0,0,0,0,0,-0.04724121,-0.9832764,-0.2039795,0,0,0,0,0,0
4.980019,-1,-0.1374799,-1,0.4903153,0,0,0,0,0,0,0,0,0,0,0,1,0,0,0,0,0,-0.04797363,-0.9918213,-0.1994629,0,0,0,0,0,0
4.990019,-1,-0.113854,-1,0.4903153,0,0,0,0,0,0,0,0,0,0,0,1,0,0,0.003920509,-0.002075564,-0.008763492,-0.05578613,-1.023071,-0.1921387,0,0,0,0,0,0
5.00002,-1,-0.09026043,-1,0.4903153,0,0,0,0,0,0,0,0,0,0,0,1,0,0,0,0,0,-0.0645752,-1.041748,-0.1914063,0,0,0,0,0,0
5.01002,-1,-0.035298,-1,0.4903153,0,0,0,0,0,0,0,0,0,0,0,1,0,0,0,0,0,-0.07421875,-1.046143,-0.2010498,0,0,0,0,0,0
5.02002,-1,0.035298,-1,0.4903153,0,0,0,0,0,0,0,0,0,0,0,1,0,0,-0.05697777,-0.002306792,-0.006459019,-0.05944824,-1.054321,-0.1994629,0,0,0,0,0,0
5.03002,-1,0.09026043,-1,0.4903153,0,0,0,0,0,0,0,0,0,0,0,1,0,0,0,0,0,-0.0411377,-1.02356,-0.2120361,0,0,0,0,0,0
5.04002,-1,0.1848525,-1,0.4903153,0,0,0,0,0,0,0,0,0,0,0,1,0,0,0,0,0,-0.03149414,-1.013916,-0.2186279,0,0,0,0,0,0
5.050021,-1,0.2802319,-0.9815939,0.4888099,0,0,0,0,0,0,0,0,0,0,0,1,0,0,0,0,0,-0.01159668,-0.9282227,-0.2510986,0,0,0,0,0,0
5.060021,-1,0.336352,-0.8033084,0.4773282,0,0,0,0,0,0,0,0,0,0,0,1,0,0,0,0,0,-0.009521484,-0.90625,-0.2595215,0,0,0,0,0,0
5.070021,-1,0.4091095,-0.3438859,0.4133578,0,0,0,0,0,0,0,0,0,0,0,1,0,0,0,0,0,-0.03601074,-0.8511963,-0.3068848,0,0,0,0,0,0
5.080021,-1,0.4580168,0.07982007,0.3044988,0,0,0,0,0,0,0,0,0,0,0,1,0,0,0.08571772,0.01124577,0.0124953,-0.07421875,-0.8579102,-0.2695313,0,0,0,0,0,0
5.090022,-1,0.4825947,0.24413,0.3011993,0,0,0,0,0,0,0,0,0,0,0,1,0,0,0,0,0,-0.07592773,-0.956665,-0.175293,0,0,0,0,0,0
5.100022,-1,0.5320019,0.5127559,0.340642,0,0,0,0,0,0,0,0,0,0,0,1,0,0,0,0,0,-0.02331543,-0.9780273,-0.215332,0,0,0,0,0,0
5.110022,-1,0.5729127,0.7856765,0.364094,0,0,0,0,0,0,0,0,0,0,0,1,0,0,0.05872789,0.006247648,0.02723974,-0.04406738,-0.9855957,-0.2501221,0,0,0,0,0,0
5.120022,-1,0.5890183,0.9296244,0.3726343,0,0,0,0,0,0,0,0,0,0,0,1,0,0,0,0,0,-0.0333252,-1.002319,-0.2327881,0,0,0,0,0,0
5.130023,-0.9823048,0.6374958,1,0.3766855,0,0,0,0,0,0,0,0,0,0,0,1,0,0,0,0,0,-0.05310059,-0.9963379,-0.2354736,0,0,0,0,0,0
5.140023,-0.9585657,0.6778142,1,0.3524597,0,0,0,0,0,0,0,0,0,0,0,1,0,0,0.0232986,0.004382906,0.02952694,-0.03308105,-1.024902,-0.2196045,0,0,0,0,0,0
5.150023,-0.9426614,0.7019819,1,0.3524597,0,0,0,0,0,0,0,0,0,0,0,1,0,0,0,0,0,-0.04577637,-0.9505615,-0.2474365,0,0,0,0,0,0
5.160023,-0.926836,0.7262222,1,0.3524597,0,0,0,0,0,0,0,0,0,0,0,1,0,0,0,0,0,-0.05004883,-0.9855957,-0.2346191,0,0,0,0,0,0
5.170023,-0.9104943,0.7420328,1,0.433522,0,0,0,0,0,0,0,0,0,0,0,1,0,0,0.04844264,0.01176464,0.01683958,-0.05761719,-0.9907227,-0.2089844,0,0,0,0,0,0
5.180024,-0.9110838,0.7505404,0.9915852,0.5057483,0,0,0,0,0,0,0,0,0,0,0,1,0,0,0,0,0,-0.04907227,-0.9825439,-0.2102051,0,0,0,0,0,0
5.190024,-0.9023457,0.7499495,0.9292061,0.6340935,0,0,0,0,0,0,0,0,0,0,0,1,0,0,0,0,0,-0.04675293,-1.004395,-0.1904297,0,0,0,0,0,0
5.200024,-0.9023457,0.7499495,0.8426419,0.7627706,0,0,0,0,0,0,0,0,0,0,0,1,0,0,0.02848927,0.001999247,-0.003748589,-0.0357666,-1.044312,-0.1832275,0,0,0,0,0,0
5.210024,-0.9023457,0.7499495,0.7596387,0.7994105,0,0,0,0,0,0,0,0,0,0,0,1,0,0,0,0,0,-0.02978516,-1.049805,-0.1903076,0,0,0,0,0,0
5.220025,-0.9029379,0.7584679,0.5913316,0.794969,0,0,0,0,0,0,0,0,0,0,0,1,0,0,0,0,0,-0.02563477,-1.078125,-0.1699219,0,0,0,0,0,0
5.230025,-0.9029379,0.7584679,0.4516713,0.783669,0,0,0,0,0,0,0,0,0,0,0,1,0,0,0,0,0,-0.03894043,-1.033203,-0.1906738,0,0,0,0,0,0
5.240025,-0.8942115,0.7578744,0.2413871,0.6870249,0,0,0,0,0,0,0,0,0,0,0,1,0,0,0,0,0,-0.05102539,-0.994873,-0.2142334,0,0,0,0,0,0
5.250025,-0.8942115,0.7578744,0.07460564,0.5861872,0,0,0,0,0,0,0,0,0,0,0,1,0,0,0,0,0,-0.06262207,-0.9790039,-0.2030029,0,0,0,0,0,0
5.260026,-0.8942115,0.7578744,-0.03129304,0.5389357,0,0,0,0,0,0,0,0,0,0,0,1,0,0,0,0,0,-0.05761719,-0.9755859,-0.2071533,0,0,0,0,0,0
5.270026,-0.8942115,0.7578744,-0.1316142,0.4623372,0,0,0,0,0,0,0,0,0,0,0,1,0,0,0,0,0,-0.0526123,-0.9803467,-0.2056885,0,0,0,0,0,0
5.280026,-0.8942115,0.7578744,-0.1958808,0.4083616,0,0,0,0,0,0,0,0,0,0,0,1,0,0,0,0,0,-0.046875,-0.9862061,-0.2062988,0,0,0,0,0,0
5.290026,-0.8942115,0.7578744,-0.2385951,0.3562584,0,0,0,0,0,0,0,0,0,0,0,1,0,0,-0.001749199,-0.003498398,-0.01099496,-0.02990723,-0.9859619,-0.2061768,0,0,0,0,0,0
5.300026,-0.8698937,0.7817017,-0.2829929,0.2702741,0,0,0,0,0,0,0,0,0,0,0,1,0,0,0,0,0,-0.02978516,-0.9602051,-0.2219238,0,0,0,0,0,0
5.310027,-0.8543524,0.8062198,-0.2887994,0.2204813,0,0,0,0,0,0,0,0,0,0,0,1,0,0,0,0,0,-0.04052734,-0.9593506,-0.2331543,0,0,0,0,0,0
5.320027,-0.8463007,0.8142135,-0.2897989,0.1860814,0,0,0,0,0,0,0,0,0,0,0,1,0,0,0,0,0,-0.04150391,-0.9807129,-0.2211914,0,0,0,0,0,0
5.330027,-0.8382612,0.8222179,-0.2814558,0.145172,0,0,0,0,0,0,0,0,0,0,0,1,0,0,0,0,0,-0.0369873,-1.01001,-0.2067871,0,0,0,0,0,0
5.340027,-0.8382612,0.8222179,-0.2750434,0.1129126,0,0,0,0,0,0,0,0,0,0,0,1,0,0,0,0,0,-0.03930664,-1.035767,-0.1938477,0,0,0,0,0,0
5.350028,-0.8382612,0.8222179,-0.2715934,0.09434298,0,0,0,0,0,0,0,0,0,0,0,1,0,0,0,0,0,-0.0402832,-1.026978,-0.1929932,0,0,0,0,0,0
5.360028,-0.8382612,0.8222179,-0.2605959,0.08126108,0,0,0,0,0,0,0,0,0,0,0,1,0,0,0,0,0,-0.0456543,-1.011597,-0.1986084,0,0,0,0,0,0
5.370028,-0.8382612,0.8222179,-0.2605959,0.08126108,0,0,0,0,0,0,0,0,0,0,0,1,0,0,-0.02624012,-0.01374483,-0.01624388,-0.04248047,-0.9969482,-0.2161865,0,0,0,0,0,0
5.380028,-0.8382612,0.8222179,-0.2516995,0.08021192,0,0,0,0,0,0,0,0,0,0,0,1,0,0,0,0,0,-0.0447998,-0.9929199,-0.2097168,0,0,0,0,0,0
5.390028,-0.8463007,0.8142135,-0.2516995,0.08021192,0,0,0,0,0,0,0,0,0,0,0,1,0,0,0,0,0,-0.04956055,-0.9737549,-0.215332,0,0,0,0,0,0
5.400029,-0.8537496,0.7976347,-0.2428234,0.07912223,0,0,0,0,0,0,0,0,0,0,0,1,0,0,0,0,0,-0.05200195,-0.9625244,-0.21875,0,0,0,0,0,0
5.410029,-0.8606049,0.772543,-0.2428234,0.07912223,0,0,0,0,0,0,0,0,0,0,0,1,0,0,0,0,0,-0.0567627,-0.9750977,-0.2073975,0,0,0,0,0,0
5.420029,-0.8680802,0.7560699,-0.2560216,0.1409557,0,0,0,0,0,0,0,0,0,0,0,1,0,0,-0.01974257,-0.01024614,-0.01149567,-0.05627441,-0.9630127,-0.2193604,0,0,0,0,0,0
5.430029,-0.8761782,0.7481521,-0.2711453,0.2102138,0,0,0,0,0,0,0,0,0,0,0,1,0,0,0,0,0,-0.05126953,-0.96521,-0.2166748,0,0,0,0,0,0
5.44003,-0.8755721,0.7396386,-0.3049191,0.4077007,0,0,0,0,0,0,0,0,0,0,0,1,0,0,0,0,0,-0.06286621,-0.940918,-0.2276611,0,0,0,0,0,0
5.45003,-0.8836871,0.731741,-0.3419473,0.6951676,0,0,0,0,0,0,0,0,0,0,0,1,0,0,0,0,0,-0.06799316,-0.9237061,-0.2403564,0,0,0,0,0,0
5.46003,-0.8836871,0.731741,-0.360111,1,0,0,0,0,0,0,0,0,0,0,0,1,0,0,0.02624012,-0.01949266,-0.02898908,-0.06762695,-0.9190674,-0.2406006,0,0,0,0,0,0
5.47003,-0.8836871,0.731741,-0.3605264,1,0,0,0,0,0,0,0,0,0,0,0,1,0,0,0,0,0,0.01586914,-0.8620605,-0.3413086,0,0,0,0,0,0
5.480031,-0.892418,0.7323431,-0.3605264,1,0,0,0,0,0,0,0,0,0,0,0,1,0,0,0,0,0,-0.006347656,-0.9802246,-0.184082,0,0,0,0,0,0
5.490031,-0.8836871,0.731741,-0.3605264,1,0,0,0,0,0,0,0,0,0,0,0,1,0,0,0.1426963,0.002499059,0.01799322,-0.02526855,-0.9785156,-0.1782227,0,0,0,0,0,0
5.500031,-0.8836871,0.731741,-0.3605264,1,0,0,0,0,0,0,0,0,0,0,0,1,0,0,0,0,0,-0.06848145,-1.026733,-0.1422119,0,0,0,0,0,0
5.510031,-0.8836871,0.731741,-0.3605264,1,0,0,0,0,0,0,0,0,0,0,0,1,0,0,0,0,0,-0.06176758,-1.12146,-0.1363525,0,0,0,0,0,0
5.520031,-0.8848926,0.7487553,-0.3605264,1,0,0,0,0,0,0,0,0,0,0,0,1,0,0,0.03223523,0.00224897,0.005247597,-0.06921387,-1.152588,-0.107666,0,0,0,0,0,0
5.530032,-0.877385,0.765208,-0.3605264,1,0,0,0,0,0,0,0,0,0,0,0,1,0,0,0,0,0,-0.07043457,-1.174194,-0.1123047,0,0,0,0,0,0
5.540032,-0.8698937,0.7817017,-0.2882255,1,0,0,0,0,0,0,0,0,0,0,0,1,0,0,0,0,0,-0.05541992,-1.140137,-0.15979,0,0,0,0,0,0
5.550032,-0.8624167,0.7982369,-0.2244794,1,0,0,0,0,0,0,0,0,0,0,0,1,0,0,0,0,0,-0.03686523,-1.041992,-0.1856689,0,0,0,0,0,0
5.560032,-0.8549528,0.8148141,-0.09585234,0.862671,0,0,0,0,0,0,0,0,0,0,0,1,0,0,0,0,0,-0.01037598,-0.9609375,-0.2016602,0,0,0,0,0,0
5.570033,-0.8382612,0.8222179,0.06722675,0.5767347,0,0,0,0,0,0,0,0,0,0,0,1,0,0,-0.04423334,0.005997742,0.002499059,-0.01818848,-0.949585,-0.1781006,0,0,0,0,0,0
5.580033,-0.8308351,0.8388625,0.1598288,0.3946792,0,0,0,0,0,0,0,0,0,0,0,1,0,0,0,0,0,-0.03759766,-0.8966064,-0.189209,0,0,0,0,0,0
5.590033,-0.8228191,0.8469017,0.2696252,0.2029762,0,0,0,0,0,0,0,0,0,0,0,1,0,0,0,0,0,-0.04077148,-0.9293213,-0.1824951,0,0,0,0,0,0
5.600033,-0.8148141,0.8549528,0.4411907,0.09619948,0,0,0,0,0,0,0,0,0,0,0,1,0,0,0.01499435,-0.001249529,0.01424464,-0.02880859,-0.9683838,-0.1898193,0,0,0,0,0,0
5.610034,-0.8148141,0.8549528,0.6406125,0.04705063,0,0,0,0,0,0,0,0,0,0,0,1,0,0,0,0,0,-0.04394531,-0.9689941,-0.1923828,0,0,0,0,0,0
5.620034,-0.8154115,0.8636132,0.9356657,-0.05047159,0,0,0,0,0,0,0,0,0,0,0,1,0,0,0,0,0,-0.04699707,-0.9710693,-0.2229004,0,0,0,0,0,0
5.630034,-0.8154115,0.8636132,1,-0.1611441,0,0,0,0,0,0,0,0,0,0,0,1,0,0,-0.005997742,-0.001499435,0.003998494,-0.1169434,-0.9919434,-0.1439209,0,0,0,0,0,0
5.640034,-0.8068197,0.8630162,1,-0.2324234,0,0,0,0,0,0,0,0,0,0,0,1,0,0,0,0,0,-0.03344727,-1.062378,-0.1602783,0,0,0,0,0,0
5.650034,-0.8068197,0.8630162,1,-0.2722459,0,0,0,0,0,0,0,0,0,0,0,1,0,0,0,0,0,-0.05786133,-1.006714,-0.2537842,0,0,0,0,0,0
5.660035,-0.8154115,0.8636132,1,-0.2722459,0,0,0,0,0,0,0,0,0,0,0,1,0,0,-0.03448702,0.0002499059,-0.0167437,-0.03015137,-0.9543457,-0.2601318,0,0,0,0,0,0
5.670035,-0.8068197,0.8630162,1,-0.2722459,0,0,0,0,0,0,0,0,0,0,0,1,0,0,0,0,0,-0.03405762,-0.9782715,-0.2357178,0,0,0,0,0,0
5.680035,-0.8148141,0.8549528,1,-0.2722459,0,0,0,0,0,0,0,0,0,0,0,1,0,0,0,0,0,-0.02954102,-0.9798584,-0.2139893,0,0,0,0,0,0
5.690035,-0.8136096,0.8376572,1,-0.2722459,0,0,0,0,0,0,0,0,0,0,0,1,0,0,0,0,0,-0.02880859,-0.9807129,-0.2000732,0,0,0,0,0,0
5.700036,-0.8130026,0.8290224,1,-0.2722459,0,0,0,0,0,0,0,0,0,0,0,1,0,0,0,0,0,-0.03076172,-0.984375,-0.2086182,0,0,0,0,0,0
5.710036,-0.8210066,0.8210066,1,-0.2722459,0,0,0,0,0,0,0,0,0,0,0,1,0,0,0,0,0,-0.03552246,-0.9831543,-0.2055664,0,0,0,0,0,0
5.720036,-0.8290224,0.8130026,1,-0.2722459,0,0,0,0,0,0,0,0,0,0,0,1,0,0,0.005248024,-0.0002499059,0.002998871,-0.02587891,-1.022949,-0.1827393,0,0,0,0,0,0
5.730036,-0.8284124,0.8044004,1,-0.2722459,0,0,0,0,0,0,0,0,0,0,0,1,0,0,0,0,0,-0.01342773,-1.032471,-0.1762695,0,0,0,0,0,0
5.740036,-0.8284124,0.8044004,1,-0.2722459,0,0,0,0,0,0,0,0,0,0,0,1,0,0,0,0,0,-0.03173828,-1.016968,-0.1774902,0,0,0,0,0,0
5.750037,-0.8284124,0.8044004,1,-0.2722459,0,0,0,0,0,0,0,0,0,0,0,1,0,0,0,0,0,-0.04406738,-0.9876709,-0.2133789,0,0,0,0,0,0
5.760037,-0.8284124,0.8044004,1,-0.2962267,0,0,0,0,0,0,0,0,0,0,0,1,0,0,0,0,0,-0.03747559,-0.987793,-0.2139893,0,0,0,0,0,0
5.770037,-0.8284124,0.8044004,1,-0.3605264,0,0,0,0,0,0,0,0,0,0,0,1,0,0,0,0,0,-0.03149414,-1.00061,-0.2052002,0,0,0,0,0,0
5.780037,-0.8290224,0.8130026,0.996623,-0.4407377,0,0,0,0,0,0,0,0,0,0,0,1,0,0,0,0,0,-0.02819824,-0.9973145,-0.2006836,0,0,0,0,0,0
5.790038,-0.8290224,0.8130026,0.9731412,-0.4965006,0,0,0,0,0,0,0,0,0,0,0,1,0,0,0,0,0,-0.03173828,-1.008423,-0.1937256,0,0,0,0,0,0
5.800038,-0.8296295,0.8216138,0.9351605,-0.5929316,0,0,0,0,0,0,0,0,0,0,0,1,0,0,0,0,0,-0.03625488,-1.034546,-0.1837158,0,0,0,0,0,0
5.810038,-0.8296295,0.8216138,0.8800389,-0.680935,0,0,0,0,0,0,0,0,0,0,0,1,0,0,0,0,0,-0.03186035,-1.045288,-0.1875,0,0,0,0,0,0
5.820038,-0.8302338,0.8302338,0.8569256,-0.7214118,0,0,0,0,0,0,0,0,0,0,0,1,0,0,-0.05872789,-0.0007497177,0.01449454,-0.02612305,-1.057373,-0.1866455,0,0,0,0,0,0
5.830039,-0.8222179,0.8382612,0.7627706,-0.8426419,0,0,0,0,0,0,0,0,0,0,0,1,0,0,0,0,0,-0.03857422,-1.038574,-0.1956787,0,0,0,0,0,0
5.840039,-0.8228191,0.8469017,0.6905887,-0.8981643,0,0,0,0,0,0,0,0,0,0,0,1,0,0,0,0,0,-0.04370117,-0.9940186,-0.2192383,0,0,0,0,0,0
5.850039,-0.8228191,0.8469017,0.6268787,-0.9463074,0,0,0,0,0,0,0,0,0,0,0,1,0,0,0,0,0,-0.05200195,-0.958252,-0.230835,0,0,0,0,0,0
5.860039,-0.8228191,0.8469017,0.5702448,-0.9690174,0,0,0,0,0,0,0,0,0,0,0,1,0,0,-0.073356,-0.002076113,-0.0006920377,-0.05737305,-0.9331055,-0.2436523,0,0,0,0,0,0
5.870039,-0.8228191,0.8469017,0.5382023,-0.9847108,0,0,0,0,0,0,0,0,0,0,0,1,0,0,0,0,0,-0.06091309,-0.9250488,-0.2556152,0,0,0,0,0,0
5.88004,-0.8228191,0.8469017,0.5062566,-1,0,0,0,0,0,0,0,0,0,0,0,1,0,0,0,0,0,-0.0604248,-0.9248047,-0.2626953,0,0,0,0,0,0
5.89004,-0.8222179,0.8382612,0.4739094,-1,0,0,0,0,0,0,0,0,0,0,0,1,0,0,0,0,0,-0.0625,-0.9285889,-0.2664795,0,0,0,0,0,0
5.90004,-0.8216138,0.8296295,0.4498426,-1,0,0,0,0,0,0,0,0,0,0,0,1,0,0,0,0,0,-0.05383301,-0.934082,-0.2706299,0,0,0,0,0,0
5.91004,-0.8290224,0.8130026,0.4172379,-1,0,0,0,0,0,0,0,0,0,0,0,1,0,0,0,0,0,-0.05212402,-0.9432373,-0.265625,0,0,0,0,0,0
5.920041,-0.8444824,0.7884504,0.3766855,-1,0,0,0,0,0,0,0,0,0,0,0,1,0,0,0,0,0,-0.05334473,-0.9415283,-0.2629395,0,0,0,0,0,0
5.930041,-0.851927,0.7719339,0.3283107,-1,0,0,0,0,0,0,0,0,0,0,0,1,0,0,0,0,0,-0.0748291,-0.9815674,-0.2061768,0,0,0,0,0,0
5.940041,-0.8593862,0.7554604,0.278603,-0.7976441,0,0,0,0,0,0,0,0,0,0,0,1,0,0,0,0,0,-0.08972168,-0.972168,-0.21875,0,0,0,0,0,0
5.950041,-0.8674718,0.7475448,0.2340925,-0.430866,0,0,0,0,0,0,0,0,0,0,0,1,0,0,0,0,0,-0.07165527,-1.001221,-0.2302246,0,0,0,0,0,0
5.960042,-0.8668616,0.7390295,0.1880181,-0.1716687,0,0,0,0,0,0,0,0,0,0,0,1,0,0,0,0,0,-0.05432129,-1.0271,-0.2259521,0,0,0,0,0,0
5.970042,-0.8749644,0.7311347,0.1335966,0.01395786,0,0,0,0,0,0,0,0,0,0,0,1,0,0,0,0,0,0.005615234,-0.9758301,-0.2597656,0,0,0,0,0,0
5.980042,-0.8749644,0.7311347,0.1369147,0.05687224,0,0,0,0,0,0,0,0,0,0,0,1,0,0,0,0,0,0.03845215,-1.041748,-0.1888428,0,0,0,0,0,0
5.990042,-0.8830822,0.7232483,0.1465203,0.08340386,0,0,0,0,0,0,0,0,0,0,0,1,0,0,0.008746706,0.003748589,-0.01074595,0.004882813,-1.011108,-0.199585,0,0,0,0,0,0
6.000042,-0.8743551,0.7226405,0.1546318,0.08539369,0,0,0,0,0,0,0,0,0,0,0,1,0,0,0,0,0,0.001220703,-1.012451,-0.2105713,0,0,0,0,0,0
6.010043,-0.8743551,0.7226405,0.2289784,0.09428522,0,0,0,0,0,0,0,0,0,0,0,1,0,0,0,0,0,-0.01220703,-0.9920654,-0.2089844,0,0,0,0,0,0
6.020043,-0.8830822,0.7232483,0.302973,0.06765416,0,0,0,0,0,0,0,0,0,0,0,1,0,0,0.01624388,-0.003998494,0.02873918,-0.0345459,-0.9989014,-0.2095947,0,0,0,0,0,0
6.030043,-0.8749644,0.7311347,0.3542611,0.01540266,0,0,0,0,0,0,0,0,0,0,0,1,0,0,0,0,0,-0.03320313,-0.9921875,-0.1992188,0,0,0,0,0,0
6.040043,-0.8674718,0.7475448,0.4520144,-0.1171889,0,0,0,0,0,0,0,0,0,0,0,1,0,0,0,0,0,-0.02368164,-0.9715576,-0.2021484,0,0,0,0,0,0
6.050044,-0.8525369,0.7804915,0.5846055,-0.3713532,0,0,0,0,0,0,0,0,0,0,0,1,0,0,-0.002076113,0.007612415,0.02860422,-0.03027344,-0.9611816,-0.2264404,0,0,0,0,0,0
6.060044,-0.8463007,0.8142135,0.6722574,-0.5646963,0,0,0,0,0,0,0,0,0,0,0,1,0,0,0,0,0,-0.04492188,-0.9787598,-0.2402344,0,0,0,0,0,0
6.070044,-0.8074164,0.8716883,0.7596387,-0.7994105,0,0,0,0,0,0,0,0,0,0,0,1,0,0,0,0,0,-0.1816406,-1.085815,-0.04858398,0,0,0,0,0,0
6.080044,-0.7268038,0.9356093,0.7688331,-0.808669,0,0,0,0,0,0,0,0,0,0,0,1,0,0,-0.07546544,0.01074508,-0.001499313,-0.08227539,-1.042725,-0.2449951,0,0,0,0,0,0
6.090044,-0.6626692,0.9839633,0.7688331,-0.808669,0,0,0,0,0,0,0,0,0,0,0,1,0,0,0,0,0,-0.06140137,-1.006714,-0.2806396,0,0,0,0,0,0
6.100045,-0.5072563,1,0.7688331,-0.808669,0,0,0,0,0,0,0,0,0,0,0,1,0,0,0,0,0,0.0009765625,-0.9645996,-0.3029785,0,0,0,0,0,0
6.110045,-0.2882255,1,0.7939504,-0.8019298,0,0,0,0,0,0,0,0,0,0,0,1,0,0,-0.04098457,-0.01199548,-0.02249153,0.02624512,-0.9520264,-0.2994385,0,0,0,0,0,0
6.120045,-0.05099206,1,0.8259454,-0.7700843,0,0,0,0,0,0,0,0,0,0,0,1,0,0,0,0,0,0.01660156,-0.94104,-0.3464355,0,0,0,0,0,0
6.130045,0.4416777,1,0.8725189,-0.6972183,0,0,0,0,0,0,0,0,0,0,0,1,0,0,0,0,0,-0.03051758,-0.8614502,-0.3183594,0,0,0,0,0,0
6.140046,0.9127472,0.6496847,0.9109678,-0.62455,0,0,0,0,0,0,0,0,0,0,0,1,0,0,0.1024614,0.009996235,0.03648626,-0.1827393,-0.7716064,-0.3292236,0,0,0,0,0,0
6.150046,0.9831394,0.5134615,0.9490002,-0.5360461,0,0,0,0,0,0,0,0,0,0,0,1,0,0,0,0,0,-0.119751,-0.9344482,-0.1660156,0,0,0,0,0,0
6.160046,0.9915852,0.5057483,0.9794459,-0.2871468,0,0,0,0,0,0,0,0,0,0,0,1,0,0,0,0,0,-0.02209473,-0.8641357,-0.2231445,0,0,0,0,0,0
6.170046,1,0.5062566,0.9274672,-0.1125379,0,0,0,0,0,0,0,0,0,0,0,1,0,0,0,0,0,-0.05786133,-0.802002,-0.2629395,0,0,0,0,0,0
6.180047,1,0.4980331,0.6406125,0.04705063,0,0,0,0,0,0,0,0,0,0,0,0,0,0,0,0,0,0.03027344,-0.8815918,-0.210083,0,0,0,0,0,0
6.190047,1,0.4985325,0.2931992,0.0609622,0,0,0,0,0,0,0,0,0,0,0,0,0,0,0,0,0,0.004394531,-1.008423,-0.1607666,0,0,0,0,0,0
6.200047,1,0.4985325,0,0,0,0,0,0,0,0,0,0,0,0,0,0,0,0,0.2302179,-0.01730094,0.01361008,-0.03405762,-1.120361,-0.07409668,0,0,0,0,0,0
6.210047,1,0.4985325,0,0,0,0,0,0,0,0,0,0,0,0,0,0,0,0,0,0,0,-0.06359863,-1.137939,-0.03088379,0,0,0,0,0,0
6.220047,1,0.4985325,0,0,0,0,0,0,0,0,0,0,0,0,0,0,0,0,0,0,0,-0.06494141,-1.209351,-0.08105469,0,0,0,0,0,0
6.230048,1,0.4908059,0,0,0,0,0,0,0,0,0,0,0,0,0,0,0,0,0.05372977,-0.002998871,0.02324125,-0.03894043,-1.141357,-0.03491211,0,0,0,0,0,0
6.240048,1,0.4908059,0,0,0,0,0,0,0,0,0,0,0,0,0,0,0,0,0,0,0,-0.05505371,-1.098022,-0.07434082,0,0,0,0,0,0
6.250048,1,0.4825947,0,0,0,0,0,0,0,0,0,0,0,0,0,0,0,0,0,0,0,-0.09020996,-1.120483,-0.06518555,0,0,0,0,0,0
6.260048,1,0.4825947,0,0,0,0,0,0,0,0,0,0,0,0,0,0,0,0,-0.05597892,0.01574407,0.01949266,-0.1119385,-1.05603,-0.04980469,0,0,0,0,0,0
6.270049,1,0.4743927,0,0,0,0,0,0,0,0,0,0,0,0,0,1,0,0,0,0,0,-0.1026611,-1.067261,-0.05615234,0,0,0,0,0,0
6.280049,1,0.4743927,0,0,0,0,0,0,0,0,0,0,0,0,0,1,0,0,0,0,0,-0.07946777,-1.006104,-0.1256104,0,0,0,0,0,0
6.290049,1,0.4743927,0,0,0,0,0,0,0,0,0,0,0,0,0,1,0,0,-0.0719729,0.0507309,-0.01824313,-0.1971436,-0.9696045,-0.04699707,0,0,0,0,0,0
6.300049,1,0.4743927,0,0,0,0,0,0,0,0,0,0,0,0,0,1,0,0,0,0,0,-0.01708984,-1.019409,-0.1876221,0,0,0,0,0,0
6.31005,1,0.4743927,0,0,0,0,0,0,0,0,0,0,0,0,0,1,0,0,0,0,0,0.07861328,-0.8546143,-0.3720703,0,0,0,0,0,0
6.32005,1,0.4743927,-0.005208445,0.007472986,0,0,0,0,0,0,0,0,0,0,0,1,0,0,0.04423334,-0.042484,-0.02698984,0.0546875,-0.868042,-0.4044189,0,0,0,0,0,0
6.33005,1,0.4743927,-0.005208445,0.007472986,0,0,0,0,0,0,0,0,0,0,0,1,0,0,0,0,0,0.02111816,-0.9185791,-0.3231201,0,0,0,0,0,0
6.34005,1,0.4743927,-0.005208445,0.007472986,0,0,0,0,0,0,0,0,0,0,0,1,0,0,0,0,0,0.0007324219,-0.9567871,-0.21875,0,0,0,0,0,0
6.35005,1,0.4825947,0,0,0,0,0,0,0,0,0,0,0,0,0,1,0,0,0.06250856,-0.04705441,-0.005535814,0.02258301,-0.9746094,-0.3101807,0,0,0,0,0,0
6.360051,1,0.4908059,0,0,0,0,0,0,0,0,0,0,0,0,0,1,0,0,0.06447572,-0.05522921,-0.00674746,0,-0.9720459,-0.3411865,0,0,0,0,0,0
6.370051,0.9868394,0.5713281,0,0,0,0,0,0,0,0,0,0,0,0,0,1,0,0,0,0,0,-0.1271973,-1.078613,0.01489258,0,0,0,0,0,0
6.380051,0.9303717,0.6508609,0.06429155,0.01638804,0,0,0,0,0,0,0,0,0,0,0,1,0,0,0.05472494,-0.003498398,0.01274416,-0.04553223,-1.12439,-0.03759766,0,0,0,0,0,0
6.390051,0.8830822,0.7232483,0.1994617,0.03201236,0,0,0,0,0,0,0,0,0,0,0,1,0,0,0,0,0,0.03942871,-1.041016,-0.1094971,0,0,0,0,0,0
6.400052,0.7719339,0.851927,0.4379766,0.04280974,0,0,0,0,0,0,0,0,0,0,0,0,0,0,0,0,0,-0.1116943,-1.033813,-0.1187744,0,0,0,0,0,0
6.410052,0.6051498,0.9978961,0.7511288,0.04110655,0,0,0,0,0,0,0,0,0,0,0,0,0,0,-0.02199172,-0.01049605,-0.04473316,-0.1209717,-1.087769,-0.1292725,0,0,0,0,0,0
6.420052,0.433522,1,0.9724335,0.0351482,0,0,0,0,0,0,0,0,0,0,0,0,0,0,0,0,0,-0.09472656,-1.005371,-0.07043457,0,0,0,0,0,0
6.430052,0.2006854,1,1,-0.035298,0,0,0,0,0,0,0,0,0,0,0,0,0,0,0,0,0,-0.06640625,-1.09668,-0.009643555,0,0,0,0,0,0
6.440053,0.02745281,1,1,-0.1059862,0,0,0,0,0,0,0,0,0,0,0,0,0,0,-0.08945903,-0.003248512,-0.02198993,-0.01574707,-1.112427,-0.06848145,0,0,0,0,0,0
6.450053,-0.05099206,1,1,-0.113854,0,0,0,0,0,0,0,0,0,0,0,0,0,0,0,0,0,-0.03198242,-1.066406,-0.1202393,0,0,0,0,0,0
6.460053,-0.1532514,1,1,-0.113854,0,0,0,0,0,0,0,0,0,0,0,1,0,0,0,0,0,0.05395508,-1.006836,-0.1499023,0,0,0,0,0,0
6.470053,-0.2244794,1,1,-0.1453634,0,0,0,0,0,0,0,0,0,0,0,1,0,0,-0.1194453,-0.01749199,-0.03423432,0.06152344,-1.001587,-0.1685791,0,0,0,0,0,0
6.480053,-0.2562958,1,1,-0.2086106,0,0,0,0,0,0,0,0,0,0,0,1,0,0,0,0,0,0.09313965,-0.9462891,-0.2614746,0,0,0,0,0,0
6.490054,-0.2882255,1,1,-0.3605264,0,0,0,0,0,0,0,0,0,0,0,1,0,0,0,0,0,0.04650879,-0.9019775,-0.3082275,0,0,0,0,0,0
6.500054,-0.3122526,1,0.9490002,-0.5360461,0,0,0,0,0,0,0,0,0,0,0,1,0,0,0.03690867,-0.04521313,-0.0256054,0.002929688,-0.9334717,-0.3201904,0,0,0,0,0,0
6.510054,-0.336352,1,0.8869745,-0.6562817,0,0,0,0,0,0,0,0,0,0,0,1,0,0,0,0,0,-0.03674316,-0.932373,-0.203125,0,0,0,0,0,0
6.520054,-0.3524597,1,0.7596387,-0.7994105,0,0,0,0,0,0,0,0,0,0,0,1,0,0,0,0,0,-0.05639648,-1.011353,-0.04577637,0,0,0,0,0,0
6.530055,-0.3524597,1,0.680935,-0.8800389,0,0,0,0,0,0,0,0,0,0,0,1,0,0,0,0,0,-0.06225586,-1.013916,-0.07397461,0,0,0,0,0,0
6.540055,-0.3524597,1,0.5614042,-0.9595633,0,0,0,0,0,0,0,0,0,0,0,1,0,0,0,0,0,-0.07470703,-0.9453125,-0.1989746,0,0,0,0,0,0
6.550055,-0.3524597,1,0.4652353,-0.9980689,0,0,0,0,0,0,0,0,0,0,0,1,0,0,0.0422341,0.0167437,-0.02149191,-0.09912109,-0.9445801,-0.2102051,0,0,0,0,0,0
6.560055,-0.3444016,1,0.4172379,-1,0,0,0,0,0,0,0,0,0,0,0,0,0,0,0,0,0,-0.1077881,-0.9918213,-0.1837158,0,0,0,0,0,0
6.570055,-0.336352,1,0.3686016,-1,0,0,0,0,0,0,0,0,0,0,0,0,0,0,0,0,0,-0.1033936,-1.050903,-0.126709,0,0,0,0,0,0
6.580056,-0.336352,1,0.33346,-0.9454572,0,0,0,0,0,0,0,0,0,0,0,1,0,0,0,0,0,-0.135498,-1.13208,-0.08325195,0,0,0,0,0,0
6.590056,-0.3766855,1,0.3172537,-0.7912231,0,0,0,0,0,0,0,0,0,0,0,1,0,0,0,0,0,-0.1561279,-1.070801,-0.1082764,0,0,0,0,0,0
6.600056,-0.4990265,1,0.2658246,-0.4522471,0,0,0,0,0,0,0,0,0,0,0,1,0,0,0,0,0,-0.1003418,-1.040283,-0.1199951,0,0,0,0,0,0
6.610056,-0.5957312,0.979558,0.1685705,-0.1050512,0,0,0,0,0,0,0,0,0,0,0,1,0,0,-0.1384253,0.01499191,-0.04297682,-0.1401367,-0.9869385,0.009521484,0,0,0,0,0,0
6.620057,-0.6514414,0.9391946,0.1051727,0.005172426,0,0,0,0,0,0,0,0,0,0,0,1,0,0,0,0,0,-0.008911133,-1.105347,-0.182373,0,0,0,0,0,0
6.630057,-0.7396386,0.8755721,0.09982284,0.06968765,0,0,0,0,0,0,0,0,0,0,0,1,0,0,0,0,0,0.07763672,-0.9605713,-0.2978516,0,0,0,0,0,0
6.640057,-0.8327313,0.7450754,0.1910792,0.2439935,0,0,0,0,0,0,0,0,0,0,0,1,0,0,-0.09642392,0.01545551,-0.04844264,-0.1324463,-0.9433594,-0.0213623,0,0,0,0,0,0
6.650057,-0.9039459,0.649089,0.2929257,0.4307731,0,0,0,0,0,0,0,0,0,0,0,1,0,0,0,0,0,-0.03674316,-0.9509277,-0.1911621,0,0,0,0,0,0
6.660058,-0.9956806,0.4244535,0.4111015,0.6751116,0,0,0,0,0,0,0,0,0,0,0,1,0,0,0,0,0,0.1993408,-0.8371582,-0.5032959,0,0,0,0,0,0
6.670058,-1,0.113854,0.4984814,0.7612467,0,0,0,0,0,0,0,0,0,0,0,1,0,0,0,0,0,0.131958,-0.8494873,-0.3405762,0,0,0,0,0,0
6.680058,-1,-0.1296006,0.5478098,0.7653797,0,0,0,0,0,0,0,0,0,0,0,1,0,0,0,0,0,0.08056641,-0.9233398,-0.1264648,0,0,0,0,0,0
6.690058,-0.9938535,-0.391998,0.6395206,0.7729176,0,0,0,0,0,0,0,0,0,0,0,1,0,0,0,0,0,0.07617188,-1.084229,-0.09790039,0,0,0,0,0,0
6.700058,-0.9473591,-0.5113361,0.7136782,0.7531079,0,0,0,0,0,0,0,0,0,0,0,1,0,0,0,0,0,0.01574707,-1.051147,-0.1541748,0,0,0,0,0,0
6.710059,-0.9245678,-0.5674386,0.7596959,0.6888435,0,0,0,0,0,0,0,0,0,0,0,1,0,0,0.001999247,0.001499435,0.02848927,-0.0111084,-1.016479,-0.1988525,0,0,0,0,0,0
6.720059,-0.8927374,-0.6149969,0.7902702,0.6408659,0,0,0,0,0,0,0,0,0,0,0,1,0,0,0,0,0,-0.01574707,-1.032715,-0.1870117,0,0,0,0,0,0
6.730059,-0.845718,-0.6868977,0.8273892,0.5607425,0,0,0,0,0,0,0,0,0,0,0,1,0,0,0,0,0,-0.02185059,-1.03772,-0.1931152,0,0,0,0,0,0
6.740059,-0.7981337,-0.7425422,0.8375278,0.4635619,0,0,0,0,0,0,0,0,0,0,0,1,0,0,-0.0189913,-0.009495651,0.02798718,-0.04052734,-1.025513,-0.1746826,0,0,0,0,0,0
6.75006,-0.7669296,-0.7828245,0.8316327,0.3829378,0,0,0,0,0,0,0,0,0,0,0,1,0,0,0,0,0,-0.03686523,-1.02478,-0.1795654,0,0,0,0,0,0
6.76006,-0.6953552,-0.8463467,0.805277,0.2557041,0,0,0,0,0,0,0,0,0,0,0,1,0,0,0,0,0,-0.03173828,-0.9611816,-0.1933594,0,0,0,0,0,0
6.77006,-0.5757334,-0.925144,0.7440153,0.1233794,0,0,0,0,0,0,0,0,0,0,0,1,0,0,-0.0172421,0.01524302,0.01074508,-0.0213623,-0.949707,-0.2302246,0,0,0,0,0,0
6.78006,-0.4724252,-0.9805801,0.7051364,0.04799357,0,0,0,0,0,0,0,0,0,0,0,1,0,0,0,0,0,-0.03894043,-0.9517822,-0.2302246,0,0,0,0,0,0
6.790061,-0.2802319,-1,0.6406125,-0.04705063,0,0,0,0,0,0,0,0,0,0,0,1,0,0,0,0,0,-0.03918457,-0.977417,-0.1890869,0,0,0,0,0,0
6.800061,-0.01960851,-1,0.5520944,-0.1230784,0,0,0,0,0,0,0,0,0,0,0,1,0,0,0.004613584,0.01268736,0.02029977,-0.01416016,-0.9956055,-0.1744385,0,0,0,0,0,0
6.810061,0.1690417,-1,0.5004328,-0.1553067,0,0,0,0,0,0,0,0,0,0,0,1,0,0,0,0,0,-0.001342773,-1.001587,-0.1966553,0,0,0,0,0,0
6.820061,0.4662001,-1,0.4073604,-0.1887768,0,0,0,0,0,0,0,0,0,0,0,1,0,0,0,0,0,0.001342773,-1.027344,-0.2021484,0,0,0,0,0,0
6.830061,0.731741,-0.8836871,0.2995247,-0.1945367,0,0,0,0,0,0,0,0,0,0,0,1,0,0,-0.02324125,0.03323749,0.06297629,-0.02185059,-1.018799,-0.1844482,0,0,0,0,0,0
6.840062,0.8569256,-0.7214118,0.2108964,-0.1771529,0,0,0,0,0,0,0,0,0,0,0,1,0,0,0,0,0,-0.02990723,-1.016968,-0.1993408,0,0,0,0,0,0
6.850062,0.9971008,-0.448894,0.08704469,-0.1406106,0,0,0,0,0,0,0,0,0,0,0,1,0,0,0,0,0,-0.06262207,-0.9881592,-0.2041016,0,0,0,0,0,0
6.860062,1,-0.1927661,0,0,0,0,0,0,0,0,0,0,0,0,0,1,0,0,-0.04623259,0.03298758,0.01049605,-0.09179688,-0.934082,-0.2528076,0,0,0,0,0,0
6.870062,1,-0.09812176,0,0,0,0,0,0,0,0,0,0,0,0,0,1,0,0,0,0,0,-0.06994629,-0.9260254,-0.2862549,0,0,0,0,0,0
6.880063,1,0.01176485,0,0,0,0,0,0,0,0,0,0,0,0,0,1,0,0,0,0,0,-0.04223633,-0.9868164,-0.227417,0,0,0,0,0,0
6.890063,1,0.07454614,0,0,0,0,0,0,0,0,0,0,0,0,0,1,0,0,0.01149567,-0.0009996236,-0.0169936,-0.03210449,-1.003052,-0.1977539,0,0,0,0,0,0
6.900063,1,0.1374799,0,0,0,0,0,0,0,0,0,0,0,0,0,1,0,0,0,0,0,-0.01904297,-0.9790039,-0.2103271,0,0,0,0,0,0
6.910063,1,0.2006854,0,0,0,0,0,0,0,0,0,0,0,0,0,1,0,0,0,0,0,-0.01306152,-0.9735107,-0.1896973,0,0,0,0,0,0
6.920063,1,0.2802319,0,0,0,0,0,0,0,0,0,0,0,0,0,1,0,0,0.02952694,-0.005305622,0.007151056,-0.02514648,-0.9074707,-0.2175293,0,0,0,0,0,0
6.930064,1,0.3444016,0,0,0,0,0,0,0,0,0,0,0,0,0,1,0,0,0,0,0,-0.03356934,-0.8898926,-0.2253418,0,0,0,0,0,0
6.940064,1,0.4743927,-0.01268743,0,0,0,0,0,0,0,0,0,0,0,0,1,0,0,0,0,0,-0.01904297,-0.9647217,-0.1700439,0,0,0,0,0,0
6.950064,0.9628969,0.6112997,-0.09596009,0.004879327,0,0,0,0,0,0,0,0,0,0,0,1,0,0,0.05697855,-0.003748589,0.01724351,-0.06298828,-1.053101,-0.1661377,0,0,0,0,0,0
6.960064,0.8830822,0.7232483,-0.1420351,0.006175438,0,0,0,0,0,0,0,0,0,0,0,1,0,0,0,0,0,-0.05712891,-1.108643,-0.1534424,0,0,0,0,0,0
6.970065,0.731741,0.8836871,-0.2157961,0.007616332,0,0,0,0,0,0,0,0,0,0,0,1,0,0,0,0,0,-0.06066895,-1.094727,-0.1662598,0,0,0,0,0,0
6.980065,0.4908059,1,-0.2988061,0.008703089,0,0,0,0,0,0,0,0,0,0,0,1,0,0,-0.03098833,-0.006497554,-0.03273767,-0.07714844,-1.02832,-0.2192383,0,0,0,0,0,0
6.990065,0.2882255,1,-0.3633798,0.00931743,0,0,0,0,0,0,0,0,0,0,0,1,0,0,0,0,0,-0.03588867,-1.007813,-0.2376709,0,0,0,0,0,0
7.000065,-0.035298,1,-0.4371845,0.009861303,0,0,0,0,0,0,0,0,0,0,0,1,0,0,0,0,0,-0.01269531,-0.9656982,-0.2114258,0,0,0,0,0,0
7.010066,-0.2962267,1,-0.5109931,0.01028845,0,0,0,0,0,0,0,0,0,0,0,1,0,0,-0.005747836,0.001999247,-0.03248777,0.003417969,-0.9689941,-0.1812744,0,0,0,0,0,0
7.020066,-0.4009901,1,-0.5479556,0.01745082,0,0,0,0,0,0,0,0,0,0,0,1,0,0,0,0,0,-0.005859375,-0.9703369,-0.1751709,0,0,0,0,0,0
7.030066,-0.5154955,1,-0.5949097,0.06055966,0,0,0,0,0,0,0,0,0,0,0,1,0,0,0,0,0,-0.01623535,-0.9790039,-0.192749,0,0,0,0,0,0
7.040066,-0.579634,0.9873765,-0.6057717,0.103949,0,0,0,0,0,0,0,0,0,0,0,1,0,0,-0.004844264,-0.00599766,-0.00299883,-0.02172852,-1.022095,-0.1883545,0,0,0,0,0,0
7.050066,-0.6196507,0.9634567,-0.6068965,0.1256886,0,0,0,0,0,0,0,0,0,0,0,1,0,0,0,0,0,-0.01843262,-1.011841,-0.1922607,0,0,0,0,0,0
7.060067,-0.6586743,0.9221439,-0.5733913,0.1673875,0,0,0,0,0,0,0,0,0,0,0,1,0,0,0,0,0,-0.02502441,-1.028198,-0.2084961,0,0,0,0,0,0
7.070067,-0.6827472,0.9063369,-0.4611351,0.2015331,0,0,0,0,0,0,0,0,0,0,0,1,0,0,-0.008073773,-0.007151056,0.009457849,-0.0267334,-0.9836426,-0.2314453,0,0,0,0,0,0
7.080067,-0.6905887,0.8981643,-0.3466128,0.2299954,0,0,0,0,0,0,0,0,0,0,0,1,0,0,0,0,0,-0.03686523,-0.9765625,-0.2312012,0,0,0,0,0,0
7.090067,-0.6899853,0.8894031,-0.1495468,0.234196,0,0,0,0,0,0,0,0,0,0,0,1,0,0,0,0,0,-0.05786133,-0.9648438,-0.2365723,0,0,0,0,0,0
7.100068,-0.6899853,0.8894031,0.01932733,0.2622995,0,0,0,0,0,0,0,0,0,0,0,1,0,0,0.01974257,-0.003248777,-0.01099586,-0.05651855,-0.9509277,-0.223999,0,0,0,0,0,0
7.110068,-0.698437,0.8900082,0.1325819,0.3299132,0,0,0,0,0,0,0,0,0,0,0,1,0,0,0,0,0,-0.04187012,-0.9556885,-0.2041016,0,0,0,0,0,0
7.120068,-0.698437,0.8900082,0.3438859,0.4133578,0,0,0,0,0,0,0,0,0,0,0,1,0,0,0,0,0,-0.02978516,-0.9671631,-0.1964111,0,0,0,0,0,0
7.130068,-0.6911871,0.9069334,0.4914261,0.4404634,0,0,0,0,0,0,0,0,0,0,0,1,0,0,0.02049228,-0.007497177,-0.01099586,-0.001953125,-0.9799805,-0.1779785,0,0,0,0,0,0
7.140069,-0.6676687,0.9315377,0.5589438,0.4478953,0,0,0,0,0,0,0,0,0,0,0,1,0,0,0,0,0,0.01403809,-0.9716797,-0.1774902,0,0,0,0,0,0
7.150069,-0.6046099,0.9889976,0.6156465,0.4216246,0,0,0,0,0,0,0,0,0,0,0,1,0,0,0,0,0,0.01953125,-0.9470215,-0.1982422,0,0,0,0,0,0
7.160069,-0.4990265,1,0.65229,0.3541003,0,0,0,0,0,0,0,0,0,0,0,1,0,0,0.05298005,-0.0004998118,0.02723974,0.006958008,-0.9458008,-0.1992188,0,0,0,0,0,0
7.170069,-0.4091095,1,0.66782,0.3320446,0,0,0,0,0,0,0,0,0,0,0,1,0,0,0,0,0,-0.01525879,-0.9432373,-0.1936035,0,0,0,0,0,0
7.180069,-0.2483314,1,0.6918632,0.3029239,0,0,0,0,0,0,0,0,0,0,0,1,0,0,0,0,0,-0.0423584,-0.9608154,-0.2056885,0,0,0,0,0,0
7.19007,-0.06669273,1,0.6912252,0.2951719,0,0,0,0,0,0,0,0,0,0,0,1,0,0,0,0,0,-0.05761719,-0.9897461,-0.1975098,0,0,0,0,0,0
7.20007,0.06669273,1,0.6912252,0.2951719,0,0,0,0,0,0,0,0,0,0,0,1,0,0,0,0,0,-0.05187988,-0.9981689,-0.192627,0,0,0,0,0,0
7.21007,0.2562958,1,0.6912252,0.2951719,0,0,0,0,0,0,0,0,0,0,0,1,0,0,0,0,0,-0.04345703,-1.018677,-0.1732178,0,0,0,0,0,0
7.22007,0.4253754,1,0.6944928,0.3341073,0,0,0,0,0,0,0,0,0,0,0,1,0,0,0,0,0,-0.03112793,-1.029053,-0.15979,0,0,0,0,0,0
7.230071,0.5480344,1,0.6728805,0.3871882,0,0,0,0,0,0,0,0,0,0,0,1,0,0,0.06182204,0.003921547,-0.0004613585,-0.02026367,-1.058838,-0.1552734,0,0,0,0,0,0
7.240071,0.6040648,0.980105,0.6488482,0.4088119,0,0,0,0,0,0,0,0,0,0,0,1,0,0,0,0,0,-0.01379395,-1.077271,-0.1402588,0,0,0,0,0,0
7.250071,0.6363822,0.9645792,0.5905742,0.4271449,0,0,0,0,0,0,0,0,0,0,0,1,0,0,0,0,0,-0.02148438,-1.103638,-0.1164551,0,0,0,0,0,0
7.260071,0.6363822,0.9645792,0.5334817,0.4451813,0,0,0,0,0,0,0,0,0,0,0,1,0,0,-0.0254904,-0.003498683,0.002499059,-0.01306152,-1.092285,-0.1102295,0,0,0,0,0,0
7.270072,0.6280115,0.9640176,0.4850192,0.4558451,0,0,0,0,0,0,0,0,0,0,0,1,0,0,0,0,0,-0.02880859,-1.077026,-0.1098633,0,0,0,0,0,0
7.280072,0.5139784,0.9920977,0.4332956,0.4988362,0,0,0,0,0,0,0,0,0,0,0,1,0,0,0,0,0,-0.06079102,-1.028076,-0.1392822,0,0,0,0,0,0
7.290072,0.2006854,1,0.3775325,0.5681314,0,0,0,0,0,0,0,0,0,0,0,1,0,0,-0.05747836,0.002998871,-0.02199172,-0.02856445,-1.015137,-0.1948242,0,0,0,0,0,0
7.300072,-0.08240198,1,0.358886,0.6178759,0,0,0,0,0,0,0,0,0,0,0,1,0,0,0,0,0,-0.001708984,-1.003174,-0.1690674,0,0,0,0,0,0
7.310072,-0.4908059,1,0.3204071,0.7199735,0,0,0,0,0,0,0,0,0,0,0,1,0,0,0,0,0,0.009521484,-0.9959717,-0.1380615,0,0,0,0,0,0
7.320073,-0.6737174,0.8969611,0.2790953,0.8067001,0,0,0,0,0,0,0,0,0,0,0,1,0,0,-0.04098457,-0.01099586,-0.008996612,-0.02844238,-0.9445801,-0.1680908,0,0,0,0,0,0
7.330073,-0.7767752,0.800676,0.2513058,0.877637,0,0,0,0,0,0,0,0,0,0,0,1,0,0,0,0,0,-0.03613281,-0.9504395,-0.199585,0,0,0,0,0,0
7.340073,-0.9286237,0.625725,0.216261,0.9948004,0,0,0,0,0,0,0,0,0,0,0,1,0,0,0,0,0,-0.01831055,-0.9603271,-0.2127686,0,0,0,0,0,0
7.350073,-1,0.4412105,0.1769445,1,0,0,0,0,0,0,0,0,0,0,0,1,0,0,0,0,0,-0.02075195,-0.9525146,-0.2077637,0,0,0,0,0,0
7.360074,-1,0.3283107,0.1453634,1,0,0,0,0,0,0,0,0,0,0,0,1,0,0,0,0,0,-0.03759766,-0.9819336,-0.1940918,0,0,0,0,0,0
7.370074,-1,0.1848525,0.08240198,1,0,0,0,0,0,0,0,0,0,0,0,1,0,0,0,0,0,-0.03515625,-1.012573,-0.1855469,0,0,0,0,0,0
7.380074,-0.8616353,-0.01914745,0.035298,1,0,0,0,0,0,0,0,0,0,0,0,1,0,0,-0.02306793,-0.01568619,-0.01591687,0.004272461,-1.000244,-0.2084961,0,0,0,0,0,0
7.390074,-0.6102099,-0.1769248,0.01176485,1,0,0,0,0,0,0,0,0,0,0,0,1,0,0,0,0,0,0.01611328,-0.9909668,-0.2261963,0,0,0,0,0,0
7.400074,-0.1959147,-0.307866,-0.04242775,0.8986969,0,0,0,0,0,0,0,0,0,0,0,1,0,0,0,0,0,0.03430176,-1.01062,-0.2618408,0,0,0,0,0,0
7.410075,0.03787926,-0.3001203,-0.08921362,0.5959471,0,0,0,0,0,0,0,0,0,0,0,1,0,0,0,-0.01299511,0.0009996236,-0.04443359,-0.9782715,-0.1763916,0,0,0,0,0,0
7.420075,0.1502563,-0.3158449,-0.1216149,0.2517146,0,0,0,0,0,0,0,0,0,0,0,1,0,0,0.0189157,0.00299883,0.009227169,-0.05493164,-1.00415,-0.1442871,0,0,0,0,0,0
7.430075,0.1637784,-0.3182864,-0.07683752,0.03766545,0,0,0,0,0,0,0,0,0,0,0,0,0,0,0,0,0,-0.1223145,-1.07019,-0.01757813,0,0,0,0,0,0
7.440075,0.1767414,-0.5025,-0.06599432,0.01941009,0,0,0,0,0,0,0,0,0,0,0,0,0,0,-0.1157064,0.01199548,-0.003498683,-0.1547852,-1.029053,-0.02746582,0,0,0,0,0,0
7.450076,0.1902095,-0.7198125,-0.0731312,0.01793784,0,0,0,0,0,0,0,0,0,0,0,0,0,0,0,0,0,-0.04821777,-0.8676758,-0.2076416,0,0,0,0,0,0
7.460076,0.1532514,-1,-0.09986624,0.02200443,0,0,0,0,0,0,0,0,0,0,0,0,0,0,0,0,0,-0.01245117,-0.9786377,-0.2952881,0,0,0,0,0,0
7.470076,0.04314433,-1,-0.1449196,0.02730369,0,0,0,0,0,0,0,0,0,0,0,0,0,0,-0.04821196,-0.04798128,-0.05536302,0.01477051,-0.9849854,-0.1610107,0,0,0,0,0,0
7.480076,-0.02745281,-1,-0.1639345,0.03368516,0,0,0,0,0,0,0,0,0,0,0,0,0,0,0,0,0,-0.01342773,-1.027588,-0.1833496,0,0,0,0,0,0
7.490077,-0.09026043,-1,-0.2451487,0.09089782,0,0,0,0,0,0,0,0,0,0,0,0,0,0,0,0,0,-0.05371094,-1.18811,-0.05432129,0,0,0,0,0,0
7.500077,-0.113854,-1,-0.3195344,0.1706252,0,0,0,0,0,0,0,0,0,0,0,1,0,0,-0.1487881,-0.01937706,-0.006689698,-0.04370117,-1.134888,-0.04187012,0,0,0,0,0,0
7.510077,-0.1453634,-1,-0.3889271,0.2360156,0,0,0,0,0,0,0,0,0,0,0,1,0,0,0,0,0,-0.005981445,-1.032104,-0.1477051,0,0,0,0,0,0
7.520077,-0.2165419,-1,-0.4765072,0.3212011,0,0,0,0,0,0,0,0,0,0,0,1,0,0,0,0,0,-0.05651855,-0.9528809,-0.1411133,0,0,0,0,0,0
7.530077,-0.3283107,-1,-0.5440884,0.3907211,0,0,0,0,0,0,0,0,0,0,0,1,0,0,-0.1174558,-0.04323372,-0.07122318,0.2124023,-0.8000488,-0.6199951,0,0,0,0,0,0
7.540078,-0.3928797,-1,-0.5449997,0.3986911,0,0,0,0,0,0,0,0,0,0,0,1,0,0,0,0,0,0.1113281,-0.7836914,-0.5349121,0,0,0,0,0,0
7.550078,-0.4637452,-0.9710904,-0.5395353,0.3512411,0,0,0,0,0,0,0,0,0,0,0,1,0,0,0,0,0,0.1278076,-0.8443604,-0.4487305,0,0,0,0,0,0
7.560078,-0.4872523,-0.9546975,-0.4853327,0.18243,0,0,0,0,0,0,0,0,0,0,0,1,0,0,0,0,0,0.1176758,-0.8322754,-0.3485107,0,0,0,0,0,0
7.570078,-0.4867211,-0.9457425,-0.4022346,0.06113966,0,0,0,0,0,0,0,0,0,0,0,1,0,0,0,0,0,0.04992676,-0.7972412,-0.2701416,0,0,0,0,0,0
7.580079,-0.4938284,-0.9283974,-0.2397538,-0.06195885,0,0,0,0,0,0,0,0,0,0,0,1,0,0,0,0,0,0.002441406,-0.9256592,-0.2198486,0,0,0,0,0,0
7.590079,-0.5091144,-0.91167,-0.1312128,-0.1359842,0,0,0,0,0,0,0,0,0,0,0,1,0,0,0,0,0,-0.1088867,-0.9974365,-0.1489258,0,0,0,0,0,0
7.600079,-0.540288,-0.8873342,-0.1156401,-0.2178336,0,0,0,0,0,0,0,0,0,0,0,1,0,0,0,0,0,-0.1005859,-1.02063,-0.1889648,0,0,0,0,0,0
7.610079,-0.6029294,-0.8393723,-0.132525,-0.3911105,0,0,0,0,0,0,0,0,0,0,0,1,0,0,0,0,0,-0.05725098,-1.018066,-0.2662354,0,0,0,0,0,0
7.62008,-0.6718992,-0.7583424,-0.1470824,-0.5990917,0,0,0,0,0,0,0,0,0,0,0,0,0,0,0.0966546,0.007612415,0.01914638,-0.09387207,-1.065552,-0.2127686,0,0,0,0,0,0
7.63008,-0.7345818,-0.6952993,-0.1521206,-0.7086594,0,0,0,0,0,0,0,0,0,0,0,0,0,0,0,0,0,-0.09973145,-1.126099,-0.138916,0,0,0,0,0,0
7.64008,-0.8199016,-0.5766772,-0.154871,-0.7819096,0,0,0,0,0,0,0,0,0,0,0,0,0,0,0,0,0,-0.03955078,-1.166626,-0.06445313,0,0,0,0,0,0
7.65008,-0.8898677,-0.450814,-0.1558018,-0.8094095,0,0,0,0,0,0,0,0,0,0,0,0,0,0,0,0,0,-0.01171875,-1.189453,-0.08496094,0,0,0,0,0,0
7.66008,-0.9201099,-0.3641286,-0.1637765,-0.8188826,0,0,0,0,0,0,0,0,0,0,0,1,0,0,0,0,0,-0.01501465,-1.208008,-0.09326172,0,0,0,0,0,0
7.670081,-0.9676104,-0.2232947,-0.1637765,-0.8188826,0,0,0,0,0,0,0,0,0,0,0,1,0,0,0,0,0,-0.02490234,-1.112671,-0.1427002,0,0,0,0,0,0
7.680081,-0.9825578,-0.1056935,-0.1868535,-0.8198676,0,0,0,0,0,0,0,0,0,0,0,1,0,0,0,0,0,-0.1499023,-0.8988037,-0.09863281,0,0,0,0,0,0
7.690081,-0.9910821,-0.05875981,-0.2177529,-0.8213484,0,0,0,0,0,0,0,0,0,0,0,1,0,0,0,0,0,0.03198242,-0.8400879,-0.3009033,0,0,0,0,0,0
7.700081,-0.9907728,0,-0.248816,-0.8230066,0,0,0,0,0,0,0,0,0,0,0,1,0,0,0,0,0,0.1031494,-0.7446289,-0.5845947,0,0,0,0,0,0
7.710082,-1,0.01960851,-0.2722293,-0.8243563,0,0,0,0,0,0,0,0,0,0,0,1,0,0,0,0,0,0.03918457,-0.75354,-0.4117432,0,0,0,0,0,0
7.720082,-1,0.01960851,-0.2726898,-0.8334321,0,0,0,0,0,0,0,0,0,0,0,1,0,0,0,0,0,0.06335449,-0.8519287,-0.331543,0,0,0,0,0,0
7.730082,-1,0.01960851,-0.3007194,-0.9255909,0,0,0,0,0,0,0,0,0,0,0,1,0,0,0,0,0,-0.02819824,-1.033325,-0.1237793,0,0,0,0,0,0
7.740082,-1,0.01176485,-0.360111,-1,0,0,0,0,0,0,0,0,0,0,0,1,0,0,0,0,0,0.005493164,-1.038818,-0.1407471,0,0,0,0,0,0
7.750082,-1,-0.035298,-0.3766855,-1,0,0,0,0,0,0,0,0,0,0,0,1,0,0,0.03548664,-0.01149567,-0.002998871,-0.04418945,-0.9707031,-0.2236328,0,0,0,0,0,0
7.760083,-1,-0.07454614,-0.4009901,-1,0,0,0,0,0,0,0,0,0,0,0,1,0,0,0,0,0,-0.0447998,-0.9401855,-0.2763672,0,0,0,0,0,0
7.770083,-1,-0.09812176,-0.4412105,-1,0,0,0,0,0,0,0,0,0,0,0,0,0,0,0,0,0,-0.0435791,-0.9233398,-0.2813721,0,0,0,0,0,0
7.780083,-1,-0.1217254,-0.4893174,-0.9905694,0,0,0,0,0,0,0,0,0,0,0,0,0,0,0.08071961,-0.03448702,-0.04898156,-0.0994873,-0.9713135,-0.2196045,0,0,0,0,0,0
7.790083,-1,-0.1374799,-0.5288838,-0.9663064,0,0,0,0,0,0,0,0,0,0,0,0,0,0,0,0,0,-0.09472656,-1.076294,-0.1326904,0,0,0,0,0,0
7.800084,-1,-0.1532514,-0.6084355,-0.9186182,0,0,0,0,0,0,0,0,0,0,0,0,0,0,0,0,0,-0.05151367,-1.063965,-0.0847168,0,0,0,0,0,0
7.810084,-1,-0.1690417,-0.6830353,-0.7935843,0,0,0,0,0,0,0,0,0,0,0,0,0,0,-0.02422132,-0.007381736,-0.02537472,-0.05029297,-1.131714,-0.1169434,0,0,0,0,0,0
7.820084,-1,-0.1690417,-0.7032079,-0.6255054,0,0,0,0,0,0,0,0,0,0,0,0,0,0,0,0,0,-0.03161621,-1.137451,-0.1303711,0,0,0,0,0,0
7.830084,-1,-0.1769445,-0.6951676,-0.3419473,0,0,0,0,0,0,0,0,0,0,0,1,0,0,0,0,0,-0.01159668,-1.057861,-0.1190186,0,0,0,0,0,0
7.840085,-1,-0.1848525,-0.7082966,-0.144626,0,0,0,0,0,0,0,0,0,0,0,1,0,0,-0.111458,-0.002249153,-0.03498682,0.05224609,-0.9971924,-0.1561279,0,0,0,0,0,0
7.850085,-1,-0.1848525,-0.7426123,-0.07836612,0,0,0,0,0,0,0,0,0,0,0,1,0,0,0,0,0,0.01159668,-0.928833,-0.08251953,0,0,0,0,0,0
7.860085,-1,-0.1848525,-0.769573,-0.04129416,0,0,0,0,0,0,0,0,0,0,0,1,0,0,0,0,0,0.1292725,-0.899292,-0.3519287,0,0,0,0,0,0
7.870085,-1,-0.1927661,-0.769573,-0.04129416,0,0,0,0,0,0,0,0,0,0,0,1,0,0,-0.0127452,-0.04098457,-0.0252405,0.0958252,-0.9440918,-0.4846191,0,0,0,0,0,0
7.880085,-1,-0.2006854,-0.7696732,-0.04880855,0,0,0,0,0,0,0,0,0,0,0,1,0,0,0,0,0,0.03063965,-0.9416504,-0.3314209,0,0,0,0,0,0
7.890086,-1,-0.2244794,-0.7430142,-0.09334349,0,0,0,0,0,0,0,0,0,0,0,1,0,0,0,0,0,0.02587891,-0.9904785,-0.1497803,0,0,0,0,0,0
7.900086,-1,-0.2244794,-0.7259591,-0.1303003,0,0,0,0,0,0,0,0,0,0,0,1,0,0,0.04573278,-0.01149567,0.01599398,0.04174805,-0.9799805,-0.2102051,0,0,0,0,0,0
7.910086,-1,-0.2244794,-0.7086594,-0.1521206,0,0,0,0,0,0,0,0,0,0,0,1,0,0,0,0,0,-0.001464844,-0.942627,-0.2420654,0,0,0,0,0,0
7.920086,-1,-0.2244794,-0.6915975,-0.173824,0,0,0,0,0,0,0,0,0,0,0,0,0,0,0,0,0,-0.04199219,-0.9211426,-0.2523193,0,0,0,0,0,0
7.930087,-1,-0.2244794,-0.6733673,-0.1729413,0,0,0,0,0,0,0,0,0,0,0,0,0,0,0.05872311,-0.007746452,-0.008745994,-0.06884766,-0.9382324,-0.2316895,0,0,0,0,0,0
7.940087,-1,-0.2244794,-0.6642575,-0.1724867,0,0,0,0,0,0,0,0,0,0,0,0,0,0,0,0,0,-0.06140137,-1.048584,-0.2160645,0,0,0,0,0,0
7.950087,-1,-0.2086106,-0.6551513,-0.172023,0,0,0,0,0,0,0,0,0,0,0,0,0,0,0.005997253,-0.005747368,-0.0224897,-0.05090332,-1.000366,-0.1817627,0,0,0,0,0,0
7.960087,-1,-0.1453634,-0.5941572,-0.02490479,0,0,0,0,0,0,0,0,0,0,0,0,0,0,0,0,0,-0.04138184,-1.12085,-0.1379395,0,0,0,0,0,0
7.970088,-1,-0.09026043,-0.5530712,0.1373871,0,0,0,0,0,0,0,0,0,0,0,0,0,0,0,0,0,-0.04138184,-1.121826,-0.1695557,0,0,0,0,0,0
7.980088,-1,-0.035298,-0.5546701,0.2540747,0,0,0,0,0,0,0,0,0,0,0,1,0,0,0,0,0,-0.03405762,-1.115845,-0.1508789,0,0,0,0,0,0
7.990088,-1,0.05884144,-0.5888655,0.4110948,0,0,0,0,0,0,0,0,0,0,0,1,0,0,0,0,0,-0.001220703,-1.024048,-0.1765137,0,0,0,0,0,0
8.000088,-1,0.1217254,-0.7037618,0.5345514,0,0,0,0,0,0,0,0,0,0,0,1,0,0,0,0,0,-0.1407471,-0.9859619,0.05187988,0,0,0,0,0,0
8.010088,-1,0.1848525,-0.8331779,0.6357424,0,0,0,0,0,0,0,0,0,0,0,1,0,0,-0.1451953,0.03698608,-0.01474445,0.170166,-0.9117432,-0.4914551,0,0,0,0,0,0
8.020088,-1,0.2086106,-0.8788145,0.6640815,0,0,0,0,0,0,0,0,0,0,0,1,0,0,0,0,0,0.1845703,-0.7987061,-0.611084,0,0,0,0,0,0
8.030088,-1,0.2086106,-0.9280418,0.6173669,0,0,0,0,0,0,0,0,0,0,0,1,0,0,0,0,0,0.05725098,-0.8115234,-0.4526367,0,0,0,0,0,0
8.040089,-1,0.2086106,-0.9741862,0.5129389,0,0,0,0,0,0,0,0,0,0,0,1,0,0,0,0,0,0.09521484,-0.9360352,-0.2874756,0,0,0,0,0,0
8.050089,-1,0.2086106,-1,0.3283107,0,0,0,0,0,0,0,0,0,0,0,1,0,0,0,0,0,0.09033203,-0.9821777,-0.1643066,0,0,0,0,0,0
8.060089,-1,0.2086106,-1,0.1927661,0,0,0,0,0,0,0,0,0,0,0,1,0,0,0,0,0,-0.005737305,-0.9863281,-0.1850586,0,0,0,0,0,0
8.070089,-1,0.2086106,-1,0.113854,0,0,0,0,0,0,0,0,0,0,0,1,0,0,0.05522021,0.009245013,0.02123854,-0.03381348,-0.9659424,-0.2995605,0,0,0,0,0,0
8.08009,-1,0.2165419,-1,0.09026043,0,0,0,0,0,0,0,0,0,0,0,1,0,0,0,0,0,-0.06140137,-1.007324,-0.2875977,0,0,0,0,0,0
8.09009,-1,0.2483314,-1,0.06669273,0,0,0,0,0,0,0,0,0,0,0,0,0,0,0,0,0,-0.1114502,-0.9470215,-0.2796631,0,0,0,0,0,0
8.10009,-1,0.2802319,-1,0.06669273,0,0,0,0,0,0,0,0,0,0,0,0,0,0,0.02745083,-0.02491336,-0.004152226,-0.1278076,-1.009888,-0.2061768,0,0,0,0,0,0
8.11009,-1,0.3042357,-1,0.06669273,0,0,0,0,0,0,0,0,0,0,0,0,0,0,0,0,0,-0.08984375,-0.9310303,-0.2165527,0,0,0,0,0,0
8.12009,-1,0.3928797,-1,0.09026043,0,0,0,0,0,0,0,0,0,0,0,0,0,0,0,0,0,-0.01623535,-1.036377,-0.1958008,0,0,0,0,0,0
8.130091,-1,0.5154955,-1,0.1532514,0,0,0,0,0,0,0,0,0,0,0,0,0,0,0,0,0,-0.07641602,-1.012329,-0.1748047,0,0,0,0,0,0
8.140091,-0.9968243,0.5884867,-1,0.2244794,0,0,0,0,0,0,0,0,0,0,0,0,0,0,0,0,0,0.0003662109,-1.006836,-0.2402344,0,0,0,0,0,0
8.150091,-0.9579972,0.6693956,-1,0.3605264,0,0,0,0,0,0,0,0,0,0,0,1,0,0,0,0,0,-0.05395508,-0.9897461,-0.190918,0,0,0,0,0,0
8.160091,-0.9344487,0.7098602,-1,0.4980331,0,0,0,0,0,0,0,0,0,0,0,1,0,0,0,0,0,-0.04272461,-1.036865,-0.1733398,0,0,0,0,0,0
8.170092,-0.9180699,0.725636,-0.9457361,0.6185194,0,0,0,0,0,0,0,0,0,0,0,1,0,0,0.04748212,0.02599021,0.009496424,-0.1428223,-0.8913574,-0.06140137,0,0,0,0,0,0
8.180092,-0.9186576,0.7341238,-0.9045442,0.657488,0,0,0,0,0,0,0,0,0,0,0,1,0,0,0,0,0,-0.06335449,-1.053467,-0.147583,0,0,0,0,0,0
8.190092,-0.9099035,0.7335345,-0.8800389,0.680935,0,0,0,0,0,0,0,0,0,0,0,1,0,0,0.003498683,0.005747836,-0.0004998118,0.08996582,-1.028198,-0.3945313,0,0,0,0,0,0
8.200092,-0.9104943,0.7420328,-0.8719043,0.6887646,0,0,0,0,0,0,0,0,0,0,0,1,0,0,0,0,0,0.05993652,-0.9715576,-0.3747559,0,0,0,0,0,0
8.210093,-0.9099035,0.7335345,-0.8725189,0.6972183,0,0,0,0,0,0,0,0,0,0,0,1,0,0,0,0,0,0.002685547,-0.9700928,-0.1170654,0,0,0,0,0,0
8.220093,-0.9104943,0.7420328,-0.8029023,0.6921572,0,0,0,0,0,0,0,0,0,0,0,1,0,0,0,0,0,0.08837891,-1.040527,-0.1483154,0,0,0,0,0,0
8.230093,-0.9099035,0.7335345,-0.6619358,0.63871,0,0,0,0,0,0,0,0,0,0,0,1,0,0,0,0,0,0.0994873,-1.004028,-0.3238525,0,0,0,0,0,0
8.240093,-0.9099035,0.7335345,-0.4814897,0.4961917,0,0,0,0,0,0,0,0,0,0,0,0,0,0,0.04382905,-0.002537472,0.02722015,0.04125977,-0.9262695,-0.3806152,0,0,0,0,0,0
8.250093,-0.9186576,0.7341238,-0.3472091,0.3815863,0,0,0,0,0,0,0,0,0,0,0,0,0,0,0,0,0,-0.02612305,-0.8846436,-0.3057861,0,0,0,0,0,0
8.260094,-0.9180699,0.725636,-0.1376913,0.1577192,0,0,0,0,0,0,0,0,0,0,0,0,0,0,0,0,0,-0.05761719,-0.9224854,-0.1976318,0,0,0,0,0,0
8.270094,-0.9180699,0.725636,0,0,0,0,0,0,0,0,0,0,0,0,0,0,0,0,0.05197619,-0.01449336,0.01174462,-0.1113281,-0.9705811,-0.08068848,0,0,0,0,0,0
8.280094,-0.9180699,0.725636,0,0,0,0,0,0,0,0,0,0,0,0,0,0,0,0,0,0,0,-0.1396484,-0.9320068,-0.1116943,0,0,0,0,0,0
8.290094,-0.9180699,0.725636,0,0,0,0,0,0,0,0,0,0,0,0,0,0,0,0,0,0,0,-0.02368164,-1.079712,-0.1623535,0,0,0,0,0,0
8.300095,-0.9099035,0.7335345,0,0,0,0,0,0,0,0,0,0,0,0,0,0,0,0,0,0,0,-0.04492188,-1.078613,-0.1375732,0,0,0,0,0,0
8.310095,-0.8948063,0.7664036,0.0361891,0.008846224,0,0,0,0,0,0,0,0,0,0,0,0,0,0,0,0,0,-0.02648926,-1.087769,-0.1721191,0,0,0,0,0,0
8.320095,-0.8463007,0.8142135,0.2376654,0.0956125,0,0,0,0,0,0,0,0,0,0,0,0,0,0,0,0,0,-0.04260254,-1.111572,-0.1525879,0,0,0,0,0,0
8.330095,-0.7902642,0.8704941,0.449901,0.3103968,0,0,0,0,0,0,0,0,0,0,0,1,0,0,0,0,0,-0.07507324,-1.05127,-0.1502686,0,0,0,0,0,0
8.340096,-0.7493544,0.8936152,0.5437634,0.4623838,0,0,0,0,0,0,0,0,0,0,0,1,0,0,0,0,0,-0.03747559,-0.9279785,-0.2193604,0,0,0,0,0,0
8.350096,-0.7014025,0.9338674,0.5769567,0.5392472,0,0,0,0,0,0,0,0,0,0,0,1,0,0,0,0,0,0.1037598,-0.9841309,-0.2663574,0,0,0,0,0,0
8.360096,-0.6453226,0.973996,0.5769567,0.5392472,0,0,0,0,0,0,0,0,0,0,0,1,0,0,-0.06421535,0.0279849,0.008245552,0.1323242,-0.9069824,-0.3455811,0,0,0,0,0,0
8.370096,-0.5968135,0.9973595,0.5845701,0.5317702,0,0,0,0,0,0,0,0,0,0,0,1,0,0,0,0,0,0.09533691,-0.8811035,-0.4383545,0,0,0,0,0,0
8.380096,-0.5723898,1,0.5828366,0.4343431,0,0,0,0,0,0,0,0,0,0,0,1,0,0,0,0,0,0.01623535,-0.8955078,-0.3997803,0,0,0,0,0,0
8.390097,-0.5646105,1,0.5755256,0.285953,0,0,0,0,0,0,0,0,0,0,0,1,0,0,0,0,0,0.03308105,-0.96521,-0.2614746,0,0,0,0,0,0
8.400097,-0.5646105,1,0.5494832,0.202068,0,0,0,0,0,0,0,0,0,0,0,1,0,0,0,0,0,0.02758789,-0.8835449,-0.194458,0,0,0,0,0,0
8.410097,-0.5646105,1,0,0,0,0,0,0,0,0,0,0,0,0,0,1,0,0,0,0,0,0.0213623,-0.9681396,-0.137207,0,0,0,0,0,0
8.420097,-0.5646105,1,0,0,0,0,0,0,0,0,0,0,0,0,0,0,0,0,0,0,0,0.05151367,-0.9888916,-0.2785645,0,0,0,0,0,0
8.430098,-0.5646105,1,0,0,0,0,0,0,0,0,0,0,0,0,0,0,0,0,0.1314505,-0.01474445,0.03898532,-0.06750488,-1.042969,-0.237793,0,0,0,0,0,0
8.440098,-0.5563178,1,0,0,0,0,0,0,0,0,0,0,0,0,0,0,0,0,0,0,0,-0.1022949,-1.040283,-0.182373,0,0,0,0,0,0
8.450098,-0.540269,1,0,0,0,0,0,0,0,0,0,0,0,0,0,0,0,0,0,0,0,-0.130127,-1.072998,-0.0760498,0,0,0,0,0,0
8.460098,-0.523744,1,0,0,0,0,0,0,0,0,0,0,0,0,0,0,0,0,-0.004498306,0.0002499059,-0.002998871,-0.1257324,-1.035889,-0.1008301,0,0,0,0,0,0
8.470098,-0.5154955,1,0,0,0,0,0,0,0,0,0,0,0,0,0,0,0,0,0,0,0,-0.09838867,-1.002197,-0.1700439,0,0,0,0,0,0
8.480099,-0.5072563,1,0,0,0,0,0,0,0,0,0,0,0,0,0,0,0,0,0,0,0,-0.01123047,-0.8500977,-0.3057861,0,0,0,0,0,0
8.490099,-0.5072563,1,0,0,0,0,0,0,0,0,0,0,0,0,0,0,0,0,0.0464825,-0.04298382,-0.07647121,0.1070557,-0.8599854,-0.3737793,0,0,0,0,0,0
8.500099,-0.5072563,1,0,0,0,0,0,0,0,0,1,0,0,0,0,0,0,0,0.0622834,-0.03275645,-0.03760071,0.08764648,-0.7371826,-0.3095703,0,0,0,0,0,0
8.510099,-0.5072563,1,0,0,0,0,0,0,0,0,1,0,0,0,0,0,0,0,0,0,0,0.05615234,-0.9422607,-0.1890869,0,0,0,0,0,0
8.5201,-0.5072563,1,0,0,0,0,0,0,0,0,1,0,0,0,0,0,0,0,0,0,0,-0.03796387,-1.069092,-0.1082764,0,0,0,0,0,0
8.5301,-0.5072563,1,0,0,0,0,0,0,0,0,1,0,0,0,0,0,0,0,0,0,0,-0.03344727,-1.110229,-0.09680176,0,0,0,0,0,0
8.5401,-0.5072563,1,0,0,0,0,0,0,0,0,1,0,0,0,0,0,0,0,0,0,0,-0.01708984,-1.079346,-0.1605225,0,0,0,0,0,0
8.5501,-0.5072563,1,0,0,0,0,0,0,0,0,1,0,0,0,0,0,0,0,0,0,0,-0.04968262,-1.03479,-0.2504883,0,0,0,0,0,0
8.560101,-0.5154955,1,0,0,0,0,0,0,0,0,1,0,0,0,0,0,0,0,0,0,0,-0.0970459,-1.117554,-0.1330566,0,0,0,0,0,0
8.570101,-0.523744,1,0,0,0,0,0,0,0,0,1,0,0,0,0,0,0,0,0,0,0,-0.01708984,-1.194946,-0.09790039,0,0,0,0,0,0
8.580101,-0.5320019,1,0,0,0,0,0,0,0,0,1,0,0,0,0,0,0,0,0,0,0,-0.07592773,-1.194336,0.06494141,0,0,0,0,0,0
8.590101,-0.5320019,1,0,0,0,0,0,0,0,0,1,0,0,0,0,0,0,0,0,0,0,-0.05065918,-1.094604,-0.09008789,0,0,0,0,0,0
8.600101,-0.5320019,1,0,0,0,0,0,0,0,0,1,0,0,0,0,0,0,0,-0.09411713,0.02606675,-0.02675879,0.001953125,-0.9605713,-0.2570801,0,0,0,0,0,0
8.610102,-0.5320019,1,0,0,0,0,0,0,0,0,1,0,0,0,0,0,0,0,0,0,0,0.007080078,-0.9248047,-0.2541504,0,0,0,0,0,0
8.620102,-0.5320019,1,0,0,0,0,0,0,0,0,1,0,0,0,0,0,0,0,0,0,0,-0.0246582,-0.8806152,-0.1436768,0,0,0,0,0,0
8.630102,-0.5320019,1,0,0,0,0,0,0,0,0,0,0,0,0,0,0,0,0,0,0,0,0.008911133,-0.8076172,-0.255249,0,0,0,0,0,0
8.640102,-0.5320019,1,0,0,0,0,0,0,0,0,0,0,0,0,0,0,0,0,0,0,0,-0.003417969,-0.8790283,-0.1894531,0,0,0,0,0,0
8.650103,-0.5320019,1,0,0,0,0,0,0,0,0,0,0,0,0,0,0,0,0,0,0,0,0.01904297,-0.9611816,-0.1407471,0,0,0,0,0,0
8.660103,-0.5154955,1,0,0,0,0,0,0,0,0,0,0,0,0,0,0,0,0,0,0,0,0.01330566,-1.081665,-0.1868896,0,0,0,0,0,0
8.670103,-0.5072563,1,0,0,0,0,0,0,0,0,0,0,0,0,0,0,0,0,0,0,0,0.02758789,-1.147583,-0.02697754,0,0,0,0,0,0
8.680103,-0.4662001,1,0,0,0,0,0,0,0,0,0,0,0,0,0,0,0,0,0,0,0,-0.1661377,-1.182373,0.01831055,0,0,0,0,0,0
8.690104,-0.4091095,1,0,0,0,0,0,0,0,0,0,0,0,0,0,1,0,0,0,0,0,-0.07556152,-1.150635,-0.05004883,0,0,0,0,0,0
8.700104,-0.3283107,1,0,0,0,0,0,0,0,0,0,0,0,0,0,1,0,0,-0.172421,0.07571533,0.003748283,-0.1697998,-0.9095459,0.01257324,0,0,0,0,0,0
8.710104,-0.2882255,1,0,0,0,0,0,0,0,0,0,0,0,0,0,1,0,0,0,0,0,-0.09814453,-0.9610596,-0.1842041,0,0,0,0,0,0
8.720104,-0.2086106,1,0,0,0,0,0,0,0,0,0,0,0,0,0,1,0,0,0,0,0,0.09973145,-0.9349365,-0.4072266,0,0,0,0,0,0
8.730104,-0.1374799,1,0,0,0,0,0,0,0,0,0,0,0,0,0,1,0,0,-0.1077007,0.007996337,-0.0207405,0.1716309,-0.8688965,-0.4749756,0,0,0,0,0,0
8.740105,-0.113854,1,0,0,0,0,0,0,0,0,0,0,0,0,0,1,0,0,0,0,0,0.1724854,-0.8435059,-0.5020752,0,0,0,0,0,0
8.750105,-0.09812176,1,0.1645468,-0.1861267,0,0,0,0,0,0,0,0,0,0,0,1,0,0,0,0,0,0.1057129,-0.8320313,-0.3586426,0,0,0,0,0,0
8.760105,-0.09812176,1,0.319258,-0.4016471,0,0,0,0,0,0,0,0,0,0,0,1,0,0,0,0,0,0.07019043,-0.8596191,-0.2768555,0,0,0,0,0,0
8.770105,-0.09812176,1,0.5740268,-0.7848938,0,0,0,0,0,0,0,0,0,0,0,1,0,0,0,0,0,0.05847168,-0.9238281,-0.3413086,0,0,0,0,0,0
8.780106,-0.09026043,1,0.6827472,-0.9063369,0,0,0,0,0,0,0,0,0,0,0,1,0,0,0,0,0,-0.1956787,-1.055176,-0.06567383,0,0,0,0,0,0
8.790106,-0.09812176,1,0.7475448,-0.8674718,0,0,0,0,0,0,0,0,0,0,0,1,0,0,0.05298005,-0.01849304,-0.001249529,-0.1558838,-1.087402,-0.1325684,0,0,0,0,0,0
8.800106,-0.09026043,1,0.772543,-0.8606049,0,0,0,0,0,0,0,0,0,0,0,1,0,0,0,0,0,-0.06213379,-1.062378,-0.1928711,0,0,0,0,0,0
8.810106,-0.09812176,1,0.8123925,-0.8203964,0,0,0,0,0,0,0,0,0,0,0,1,0,0,0,0,0,-0.06018066,-1.0448,-0.2386475,0,0,0,0,0,0
8.820107,-0.09812176,1,0.8277996,-0.7958074,0,0,0,0,0,0,0,0,0,0,0,0,0,0,0,0,0,-0.08276367,-1.032715,-0.2078857,0,0,0,0,0,0
8.830107,-0.1059862,1,0.8599966,-0.763997,0,0,0,0,0,0,0,0,0,0,0,0,0,0,0,0,0,-0.04699707,-1.021851,-0.2281494,0,0,0,0,0,0
8.840107,-0.1296006,1,0.8987648,-0.6990393,0,0,0,0,0,0,0,0,0,0,0,0,0,0,0,0,0,-0.02429199,-1.019287,-0.2137451,0,0,0,0,0,0
8.850107,-0.1374799,1,0.919205,-0.6167826,0,0,0,0,0,0,0,0,0,0,0,0,0,0,-0.009996235,-0.0127452,-0.0209921,-0.02050781,-1.020996,-0.1755371,0,0,0,0,0,0
8.860107,-0.1453634,1,0.9412041,-0.5520143,0,0,0,0,0,0,0,0,0,0,0,0,0,0,0,0,0,-0.01220703,-1.023071,-0.2149658,0,0,0,0,0,0
8.870108,-0.1690417,1,0.9700872,-0.447428,0,0,0,0,0,0,0,0,0,0,0,0,0,0,0,0,0,-0.003417969,-0.9874268,-0.1947021,0,0,0,0,0,0
8.880108,-0.1769445,1,1,-0.3359554,0,0,0,0,0,0,0,0,0,0,0,0,0,0,-0.002998871,-0.006247648,0.0007497177,0.0234375,-0.9710693,-0.1791992,0,0,0,0,0,0
8.890108,-0.1848525,1,1,-0.2562958,0,0,0,0,0,0,0,0,0,0,0,1,0,0,0,0,0,0.04699707,-0.9637451,-0.1893311,0,0,0,0,0,0
8.900108,-0.1848525,1,1,-0.1296006,0,0,0,0,0,0,0,0,0,0,0,1,0,0,0,0,0,0.0246582,-0.9553223,-0.2054443,0,0,0,0,0,0
8.910109,-0.1848525,1,1,0.06669273,0,0,0,0,0,0,0,0,0,0,0,1,0,0,0.03321781,0.006689698,-0.001384075,-0.01342773,-0.9251709,-0.2224121,0,0,0,0,0,0
8.920109,-0.1927661,1,1,0.2244794,0,0,0,0,0,0,0,0,0,0,0,1,0,0,0,0,0,-0.02575684,-0.8972168,-0.269165,0,0,0,0,0,0
8.930109,-0.1927661,1,0.9810852,0.4806126,0,0,0,0,0,0,0,0,0,0,0,1,0,0,0,0,0,-0.02905273,-0.9173584,-0.2348633,0,0,0,0,0,0
8.940109,-0.2006854,1,0.8482235,0.7207909,0,0,0,0,0,0,0,0,0,0,0,1,0,0,0.1206947,-0.01224439,-0.02648787,-0.02526855,-0.9072266,-0.230835,0,0,0,0,0,0
8.950109,-0.2006854,1,0.7615291,0.8253221,0,0,0,0,0,0,0,0,0,0,0,1,0,0,0,0,0,0.03051758,-0.9119873,-0.2591553,0,0,0,0,0,0
8.96011,-0.1927661,1,0.6749122,0.914526,0,0,0,0,0,0,0,0,0,0,0,1,0,0,0,0,0,0.04394531,-0.9594727,-0.2194824,0,0,0,0,0,0
8.97011,-0.1611441,1,0.6352481,0.9468793,0,0,0,0,0,0,0,0,0,0,0,1,0,0,0.1854302,-0.02748965,-0.003748589,0.03393555,-0.994873,-0.1807861,0,0,0,0,0,0
8.98011,-0.1059862,1,0.6268787,0.9463074,0,0,0,0,0,0,0,0,0,0,0,1,0,0,0,0,0,0.0177002,-1.029785,-0.164917,0,0,0,0,0,0
8.99011,0,1,0.6268787,0.9463074,0,0,0,0,0,0,0,0,0,0,0,1,0,0,0,0,0,-0.01647949,-1.047485,-0.1235352,0,0,0,0,0,0
9.000111,0.09812176,1,0.6268787,0.9463074,0,0,0,0,0,0,0,0,0,0,0,1,0,0,0,0,0,-0.01245117,-1.037964,-0.1278076,0,0,0,0,0,0
9.010111,0.2882255,1,0.6268787,0.9463074,0,0,0,0,0,0,0,0,0,0,0,1,0,0,0,0,0,-0.02636719,-1.022339,-0.1130371,0,0,0,0,0,0
9.020111,0.5154955,1,0.6436275,0.9474515,0,0,0,0,0,0,0,0,0,0,0,0,0,0,0,0,0,-0.05883789,-0.987915,-0.1478271,0,0,0,0,0,0
9.030111,0.7159706,0.8999631,0.6760875,0.9321206,0,0,0,0,0,0,0,0,0,0,0,0,0,0,0.1669371,0.01349492,-0.007247271,-0.08129883,-1.01355,-0.131958,0,0,0,0,0,0
9.040112,0.7958074,0.8277996,0.6923701,0.9244941,0,0,0,0,0,0,0,0,0,0,0,0,0,0,0,0,0,-0.06677246,-1.040161,-0.1229248,0,0,0,0,0,0
9.050112,0.8358289,0.7878387,0.7080969,0.9081243,0,0,0,0,0,0,0,0,0,0,0,0,0,0,0.1351991,0.01299511,-0.01449454,-0.02685547,-1.084595,-0.15979,0,0,0,0,0,0
9.060112,0.9005606,0.7244509,0.7402433,0.8842907,0,0,0,0,0,0,0,0,0,0,0,0,0,0,0.1177057,0.01449454,-0.01524426,-0.01672363,-0.9732666,-0.05737305,0,0,0,0,0,0
9.070112,0.9485974,0.6604159,0.763997,0.8599966,0,0,0,0,0,0,0,0,0,0,0,0,0,0,0.1262025,0.007996988,-0.0209921,-0.02929688,-1.0802,-0.05432129,0,0,0,0,0,0
9.080112,0.9640176,0.6280115,0.8037875,0.8197833,0,0,0,0,0,0,0,0,0,0,0,0,0,0,0.07704686,0.007612415,0.01453279,-0.01721191,-1.091797,0,0,0,0,0,0,0
9.090113,0.9723267,0.6202084,0.8117793,0.8117793,0,0,0,0,0,0,0,0,0,0,0,0,0,0,0,0,0,-0.03210449,-1.067139,0.06152344,0,0,0,0,0,0
9.100113,0.9806534,0.6124081,0.8197833,0.8037875,0,0,0,0,0,0,0,0,0,0,0,0,0,0,0,0,0,-0.05737305,-1.04895,0.04272461,0,0,0,0,0,0
9.110113,0.9806534,0.6124081,0.8358289,0.7878387,0,0,0,0,0,0,0,0,0,0,0,0,0,0,0,0,0,-0.08947754,-1.308716,0.06750488,0,0,0,0,0,0
9.120113,0.9884557,0.5962749,0.8358289,0.7878387,0,0,0,0,0,0,0,0,0,0,0,1,0,0,0,0,0,-0.1049805,-1.239136,0.08935547,0,0,0,0,0,0
9.130114,1,0.5806994,0.8358289,0.7878387,0,0,0,0,0,0,0,0,0,0,0,1,0,0,0,0,0,-0.1312256,-1.019897,0.2196045,0,0,0,0,0,0
9.140114,1,0.5646105,0.8203964,0.8123925,0,0,0,0,0,0,0,0,0,0,0,1,0,0,0,0,0,0.07702637,-1.061768,-0.0994873,0,0,0,0,0,0
9.150114,1,0.5563178,0.8044004,0.8284124,0,0,0,0,0,0,0,0,0,0,0,1,0,0,0,0,0,0.1629639,-0.8618164,-0.4244385,0,0,0,0,0,0
9.160114,1,0.5485454,0.7958074,0.8277996,0,0,0,0,0,0,0,0,0,0,0,1,0,0,0,0,0,0.1218262,-0.8051758,-0.4044189,0,0,0,0,0,0
9.170115,1,0.5485454,0.8037875,0.8197833,0,0,0,0,0,0,0,0,0,0,0,1,0,0,0,0,0,0.1379395,-0.8731689,-0.3479004,0,0,0,0,0,0
9.180115,1,0.540269,0.812862,0.7097673,0,0,0,0,0,0,0,0,0,0,0,1,0,0,0,0,0,0.1580811,-0.8656006,-0.3885498,0,0,0,0,0,0
9.190115,1,0.540269,0.7868797,0.3800053,0,0,0,0,0,0,0,0,0,0,0,1,0,0,0,0,0,0.1455078,-0.8366699,-0.192749,0,0,0,0,0,0
9.200115,1,0.540269,0.7693384,-0.01125861,0,0,0,0,0,0,0,0,0,0,0,1,0,0,0,0,0,0.0135498,-0.9494629,-0.01599121,0,0,0,0,0,0
9.210115,1,0.540269,0.7957353,-0.2474775,0,0,0,0,0,0,0,0,0,0,0,1,0,0,0,0,0,-0.01660156,-0.9423828,-0.02844238,0,0,0,0,0,0
9.220116,1,0.5806994,0.8921341,-0.6066512,0,0,0,0,0,0,0,0,0,0,0,1,0,0,0,0,0,-0.02685547,-0.9069824,-0.1724854,0,0,0,0,0,0
9.230116,0.956861,0.6525872,0.8818683,-0.7062927,0,0,0,0,0,0,0,0,0,0,0,0,0,0,0,0,0,-0.2177734,-1.046509,0.008666992,0,0,0,0,0,0
9.240116,0.9168916,0.7086892,0.8662497,-0.7305239,0,0,0,0,0,0,0,0,0,0,0,0,0,0,0,0,0,-0.175415,-1.103516,-0.07287598,0,0,0,0,0,0
9.250116,0.8612111,0.7810984,0.8668616,-0.7390295,0,0,0,0,0,0,0,0,0,0,0,0,0,0,0,0,0,-0.1008301,-1.102783,-0.1868896,0,0,0,0,0,0
9.260117,0.7896631,0.861815,0.8668616,-0.7390295,0,0,0,0,0,0,0,0,0,0,0,0,0,0,0,0,0,-0.07055664,-1.170654,-0.05603027,0,0,0,0,0,0
9.270117,0.7250457,0.9093114,0.8662497,-0.7305239,0,0,0,0,0,0,0,0,0,0,0,0,0,0,-0.05859253,-0.009457849,-0.01637823,-0.07873535,-1.207764,-0.06616211,0,0,0,0,0,0
9.280117,0.6929545,0.9332856,0.8743551,-0.7226405,0,0,0,0,0,0,0,0,0,0,0,0,0,0,0,0,0,-0.04626465,-1.091797,-0.06787109,0,0,0,0,0,0
9.290117,0.6447625,0.9651414,0.8957555,-0.6568874,0,0,0,0,0,0,0,0,0,0,0,1,0,0,0,0,0,-0.001708984,-1.057495,-0.05175781,0,0,0,0,0,0
9.300117,0.6046099,0.9889976,0.9151164,-0.5585776,0,0,0,0,0,0,0,0,0,0,0,1,0,0,-0.1257027,0.002998871,-0.01049605,-0.009765625,-0.9671631,-0.09875488,0,0,0,0,0,0
9.310118,0.5723898,1,0.936793,-0.4861837,0,0,0,0,0,0,0,0,0,0,0,1,0,0,0,0,0,0.009155273,-0.956665,-0.1230469,0,0,0,0,0,0
9.320118,0.5320019,1,0.9649065,-0.3583938,0,0,0,0,0,0,0,0,0,0,0,1,0,0,0,0,0,0.006103516,-0.9354248,-0.1556396,0,0,0,0,0,0
9.330118,0.5072563,1,0.9950878,-0.2241897,0,0,0,0,0,0,0,0,0,0,0,1,0,0,0,0,0,0.06481934,-0.821167,-0.2659912,0,0,0,0,0,0
9.340118,0.4990265,1,1,-0.1611441,0,0,0,0,0,0,0,0,0,0,0,1,0,0,0,0,0,0.1008301,-0.7270508,-0.2912598,0,0,0,0,0,0
9.350119,0.4990265,1,1,-0.113854,0,0,0,0,0,0,0,0,0,0,0,1,0,0,0,0,0,0.04504395,-0.8110352,-0.1920166,0,0,0,0,0,0
9.360119,0.5072563,1,1,-0.08240198,0,0,0,0,0,0,0,0,0,0,0,1,0,0,0.1989251,-0.01999247,0.00549793,0.03320313,-0.9584961,-0.1807861,0,0,0,0,0,0
9.370119,0.5154955,1,1,-0.07454614,0,0,0,0,0,0,0,0,0,0,0,1,0,0,0,0,0,0.01489258,-0.9766846,-0.1566162,0,0,0,0,0,0
9.380119,0.540269,1,0.8253554,-0.07226615,0,0,0,0,0,0,0,0,0,0,0,1,0,0,0,0,0,0.02429199,-1.068115,-0.1005859,0,0,0,0,0,0
9.39012,0.5817437,1,0.6140317,-0.08258906,0,0,0,0,0,0,0,0,0,0,0,0,0,0,0.1576906,-0.03223786,-0.009996235,-0.001220703,-1.07605,-0.01794434,0,0,0,0,0,0
9.40012,0.6140319,1,0.468541,-0.09775314,0,0,0,0,0,0,0,0,0,0,0,0,0,0,0,0,0,-0.03210449,-1.10437,-0.01501465,0,0,0,0,0,0
9.41012,0.6626692,0.9839633,0.2784441,-0.08324619,0,0,0,0,0,0,0,0,0,0,0,0,0,0,0.0232986,-0.0177623,-0.03483257,-0.1142578,-1.098999,-0.0201416,0,0,0,0,0,0
9.42012,0.6868083,0.9679579,0.2075591,-0.07431129,0,0,0,0,0,0,0,0,0,0,0,0,0,0,0,0,0,-0.1066895,-1.029175,-0.0004882813,0,0,0,0,0,0
9.43012,0.7110133,0.9520346,0.1974881,-0.06749592,0,0,0,0,0,0,0,0,0,0,0,0,0,0,0,0,0,-0.07397461,-1.137451,-0.05444336,0,0,0,0,0,0
9.440121,0.7347088,0.9274194,0.1928972,-0.046393,0,0,0,0,0,0,0,0,0,0,0,0,0,0,-0.007747083,-0.005747836,0.006247648,-0.1187744,-1.181274,0.04760742,0,0,0,0,0,0
9.450121,0.7517101,0.9285831,0.2438877,-0.01876059,0,0,0,0,0,0,0,0,0,0,0,0,0,0,0,0,0,-0.1422119,-1.175537,0.001953125,0,0,0,0,0,0
9.460121,0.7511274,0.9198298,0.3376741,0.05171585,0,0,0,0,0,0,0,0,0,0,0,1,0,0,0,0,0,-0.078125,-1.093628,0.01037598,0,0,0,0,0,0
