Timestamp, Left Stick X, Left Stick Y, Right Stick X, Right Stick Y, D-Pad Up, D-Pad Right,D-Pad Down, D-Pad Left, Button North, Button East, Button South, Button West, L1, R1, L2, R2, L3, R3,Gyroscope X, Gyroscope Y, Gyroscope Z, Accelerometer X, Accelerometer Y, Accelerometer Z,Touch 1, Touch 2, Touch 1 Pos X, Touch 1 Pos Y, Touch 2 Pos X, Touch 2 Pos Y
0,-1,-0.336352,0.3743057,0.248433,0,0,0,0,0,0,0,0,0,0,0,1,0,0,0,0,0,0.07141113,-0.9472656,-0.08947754,0,0,0,0,0,0
0.01,-1,-0.336352,0.4514081,0.1934606,0,0,0,0,0,0,0,0,0,0,0,1,0,0,0,0,0,0.07617188,-0.9857178,-0.1071777,0,0,0,0,0,0
0.02,-1,-0.336352,0.5354259,0.1434802,0,0,0,0,0,0,0,0,0,0,0,1,0,0,0.08996613,-0.005747836,0.03498682,0.06811523,-1.001831,-0.08679199,0,0,0,0,0,0
0.03,-1,-0.336352,0.6054394,0.09672701,0,0,0,0,0,0,0,0,0,0,0,0,0,0,0.09245765,-0.007996337,0.03823249,0.06726074,-1.016479,-0.05981445,0,0,0,0,0,0
0.04,-1,-0.3283107,0.7600923,0,0,0,0,0,0,0,0,0,0,0,0,0,0,0,0,0,0,0.01867676,-1.05603,0.01867676,0,0,0,0,0,0
0.05,-1,-0.2962267,0.8804235,-0.05766967,0,0,0,0,0,0,0,0,0,0,0,0,0,0,0.03623636,0.008246895,0.02723974,-0.00769043,-1.06543,0.05505371,0,0,0,0,0,0
0.05999999,-1,-0.2802319,0.9636109,-0.07412392,0,0,0,0,0,0,0,0,0,0,0,0,0,0,0,0,0,-0.02001953,-1.069092,0.0513916,0,0,0,0,0,0
0.06999999,-1,-0.2642672,1,-0.08240198,0,0,0,0,0,0,0,0,0,0,0,0,0,0,0,0,0,-0.06420898,-1.086304,0.04064941,0,0,0,0,0,0
0.07999999,-1,-0.2483314,1,-0.08240198,0,0,0,0,0,0,0,0,0,0,0,0,0,0,-0.08196913,0.004248401,-0.01774332,0.01000977,-1.064697,0.02331543,0,0,0,0,0,0
0.08999999,-1,-0.2324234,1,-0.08240198,0,0,0,0,0,0,0,0,0,0,0,1,0,0,-0.09671359,-0.004498306,-0.0294889,0.01306152,-1.015747,-0.02575684,0,0,0,0,0,0
0.09999999,-1,-0.2165419,1,-0.06669273,0,0,0,0,0,0,0,0,0,0,0,1,0,0,0,0,0,0.02990723,-0.9978027,-0.04321289,0,0,0,0,0,0
0.11,-1,-0.2086106,1,-0.035298,0,0,0,0,0,0,0,0,0,0,0,1,0,0,0,0,0,0.07312012,-0.9342041,-0.04589844,0,0,0,0,0,0
0.12,-1,-0.2006854,1,0.01176485,0,0,0,0,0,0,0,0,0,0,0,1,0,0,-0.02823707,-0.02798718,-0.04572906,0.02624512,-1.04248,-0.005615234,0,0,0,0,0,0
0.13,-1,-0.2006854,1,0.04314433,0,0,0,0,0,0,0,0,0,0,0,1,0,0,0,0,0,0.046875,-1.080566,-0.0612793,0,0,0,0,0,0
0.14,-1,-0.2006854,1,0.09026043,0,0,0,0,0,0,0,0,0,0,0,1,0,0,0,0,0,0.07727051,-1.019165,-0.1187744,0,0,0,0,0,0
0.15,-1,-0.2006854,1,0.1059862,0,0,0,0,0,0,0,0,0,0,0,1,0,0,0,0,0,0.07983398,-1.030151,-0.09753418,0,0,0,0,0,0
0.16,-1,-0.2006854,1,0.1217254,0,0,0,0,0,0,0,0,0,0,0,1,0,0,0,0,0,0.08520508,-1.007324,-0.06433105,0,0,0,0,0,0
0.17,-1,-0.2006854,1,0.1296006,0,0,0,0,0,0,0,0,0,0,0,1,0,0,0,0,0,0.06298828,-0.9874268,-0.07568359,0,0,0,0,0,0
0.18,-1,-0.2006854,1,0.1296006,0,0,0,0,0,0,0,0,0,0,0,1,0,0,0,0,0,0.04724121,-0.9838867,-0.07958984,0,0,0,0,0,0
0.19,-1,-0.2086106,1,0.1296006,0,0,0,0,0,0,0,0,0,0,0,1,0,0,0,0,0,0.03308105,-0.9731445,-0.07617188,0,0,0,0,0,0
0.2,-1,-0.2324234,1,0.1296006,0,0,0,0,0,0,0,0,0,0,0,1,0,0,0,0,0,0.02209473,-0.9761963,-0.0769043,0,0,0,0,0,0
0.21,-1,-0.2722459,1,0.1296006,0,0,0,0,0,0,0,0,0,0,0,1,0,0,-0.004613584,-0.008073773,-0.008765811,0.02746582,-0.965332,-0.08764648,0,0,0,0,0,0
0.22,-1,-0.3042357,1,0.1296006,0,0,0,0,0,0,0,0,0,0,0,1,0,0,0,0,0,0.02844238,-0.9554443,-0.0748291,0,0,0,0,0,0
0.23,-1,-0.3766855,1,0.1296006,0,0,0,0,0,0,0,0,0,0,0,1,0,0,0,0,0,0.04125977,-0.998291,-0.08374023,0,0,0,0,0,0
0.24,-1,-0.4091095,1,0.1296006,0,0,0,0,0,0,0,0,0,0,0,1,0,0,0,0,0,0.046875,-1.019653,-0.09179688,0,0,0,0,0,0
0.25,-0.9815939,-0.4888099,1,0.1296006,0,0,0,0,0,0,0,0,0,0,0,1,0,0,0,0,0,0.046875,-1.021118,-0.08776855,0,0,0,0,0,0
0.26,-0.9263003,-0.5923551,1,0.1296006,0,0,0,0,0,0,0,0,0,0,0,1,0,0,0.02449078,-0.007996988,-0.01749341,0.05395508,-1.029175,-0.08325195,0,0,0,0,0,0
0.27,-0.870672,-0.6718884,1,0.1296006,0,0,0,0,0,0,0,0,0,0,0,1,0,0,0,0,0,0.06079102,-1.052979,-0.07421875,0,0,0,0,0,0
0.28,-0.7669296,-0.7828245,1,0.1296006,0,0,0,0,0,0,0,0,0,0,0,1,0,0,0,0,0,0.06408691,-1.064819,-0.05358887,0,0,0,0,0,0
0.29,-0.6478819,-0.886366,1,0.1296006,0,0,0,0,0,0,0,0,0,0,0,1,0,0,-0.02323936,-0.003248512,0.01349382,0.04125977,-1.044678,-0.0324707,0,0,0,0,0,0
0.3,-0.5608505,-0.9506614,1,0.1374799,0,0,0,0,0,0,0,0,0,0,0,1,0,0,0,0,0,0.03564453,-1.014526,-0.0480957,0,0,0,0,0,0
0.31,-0.3847782,-1,0.8912647,0.1350401,0,0,0,0,0,0,0,0,0,0,0,1,0,0,0,0,0,0.04321289,-1.021973,-0.04589844,0,0,0,0,0,0
0.32,-0.2324234,-1,0.7262768,0.1378064,0,0,0,0,0,0,0,0,0,0,0,1,0,0,0,0,0,0.05236816,-1.017944,-0.05517578,0,0,0,0,0,0
0.33,-0.09812176,-1,0.5348798,0.1363419,0,0,0,0,0,0,0,0,0,0,0,1,0,0,-0.05121079,0.0004613585,0.003921547,0.0612793,-0.9785156,-0.0579834,0,0,0,0,0,0
0.3399999,-0.02745281,-1,0.3902852,0.1257944,0,0,0,0,0,0,0,0,0,0,0,1,0,0,0,0,0,0.07312012,-0.9702148,-0.05834961,0,0,0,0,0,0
0.3499999,0.04314433,-1,0.1793871,0.09092221,0,0,0,0,0,0,0,0,0,0,0,1,0,0,0,0,0,0.07189941,-0.9750977,-0.07739258,0,0,0,0,0,0
0.3599999,0.09812176,-1,0,0,0,0,0,0,0,0,0,0,0,0,0,1,0,0,-0.004613584,-0.005766981,-0.01245668,0.078125,-1.01001,-0.08374023,0,0,0,0,0,0
0.3699999,0.1374799,-1,0,0,0,0,0,0,0,0,0,0,0,0,0,1,0,0,0,0,0,0.06115723,-1.0448,-0.07666016,0,0,0,0,0,0
0.3799999,0.1769445,-1,0,0,0,0,0,0,0,0,0,0,0,0,0,1,0,0,0,0,0,0.04455566,-1.005981,-0.09118652,0,0,0,0,0,0
0.3899999,0.2165419,-1,0,0,0,0,0,0,0,0,0,0,0,0,0,1,0,0,-0.007497177,-0.01449454,0.0009996236,0.05566406,-1.01416,-0.07397461,0,0,0,0,0,0
0.3999999,0.2562958,-1,0,0,0,0,0,0,0,0,0,0,0,0,0,1,0,0,0,0,0,0.04602051,-0.9997559,-0.08483887,0,0,0,0,0,0
0.4099999,0.3042357,-1,0,0,0,0,0,0,0,0,0,0,0,0,0,1,0,0,0,0,0,0.04333496,-0.9909668,-0.07519531,0,0,0,0,0,0
0.4199999,0.3444016,-1,0,0,0,0,0,0,0,0,0,0,0,0,0,1,0,0,0,0,0,0.04077148,-0.9770508,-0.07592773,0,0,0,0,0,0
0.4299999,0.4091095,-1,0,0,0,0,0,0,0,0,0,0,0,0,0,1,0,0,0,0,0,0.04431152,-0.979248,-0.08435059,0,0,0,0,0,0
0.4399998,0.4825947,-1,0,0,0,0,0,0,0,0,0,0,0,0,0,1,0,0,0,0,0,0.04943848,-0.9946289,-0.07421875,0,0,0,0,0,0
0.4499998,0.5485454,-1,0,0,0,0,0,0,0,0,0,0,0,0,0,1,0,0,0,0,0,0.05102539,-0.9980469,-0.07507324,0,0,0,0,0,0
0.4599998,0.6285701,-0.9728824,0,0,0,0,0,0,0,0,0,0,0,0,0,1,0,0,0,0,0,0.04455566,-0.9923096,-0.07495117,0,0,0,0,0,0
0.4699998,0.7002302,-0.9163012,0,0,0,0,0,0,0,0,0,0,0,0,0,1,0,0,0.006920377,0,0.01130328,0.04614258,-1.009277,-0.06750488,0,0,0,0,0,0
0.4799998,0.7566752,-0.8767824,0,0,0,0,0,0,0,0,0,0,0,0,0,1,0,0,0,0,0,0.04760742,-1.019287,-0.08007813,0,0,0,0,0,0
0.4899998,0.810544,-0.7945727,0,0,0,0,0,0,0,0,0,0,0,0,0,1,0,0,0,0,0,0.05334473,-1.028564,-0.07788086,0,0,0,0,0,0
0.4999998,0.849466,-0.7377991,0,0,0,0,0,0,0,0,0,0,0,0,0,1,0,0,0,0,0,0.0546875,-1.030762,-0.06896973,0,0,0,0,0,0
0.5099998,0.9033475,-0.6407002,0,0,0,0,0,0,0,0,0,0,0,0,0,1,0,0,0,0,0,0.04321289,-1.03418,-0.0579834,0,0,0,0,0,0
0.5199998,0.9573756,-0.5283443,0,0,0,0,0,0,0,0,0,0,0,0,0,1,0,0,0,0,0,0.03173828,-1.032959,-0.06237793,0,0,0,0,0,0
0.5299998,0.9876082,-0.4402591,0,0,0,0,0,0,0,0,0,0,0,0,0,1,0,0,0,0,0,0.03674316,-1.032715,-0.07763672,0,0,0,0,0,0
0.5399998,1,-0.2962267,0,0,0,0,0,0,0,0,0,0,0,0,0,1,0,0,0,0,0,0.03088379,-1.010864,-0.0859375,0,0,0,0,0,0
0.5499998,1,-0.1217254,0,0,0,0,0,0,0,0,0,0,0,0,0,1,0,0,0,0,0,0.05700684,-0.9973145,-0.06945801,0,0,0,0,0,0
0.5599998,1,0.04314433,0,0,0,0,0,0,0,0,0,0,0,0,0,1,0,0,-0.01845434,0.01568619,0.01637823,0.07519531,-0.9979248,-0.07995605,0,0,0,0,0,0
0.5699998,0.9596007,0.4225402,0,0,0,0,0,0,0,0,0,0,0,0,0,1,0,0,0,0,0,0.06079102,-0.9783936,-0.08544922,0,0,0,0,0,0
0.5799997,0.8587738,0.7469335,0,0,0,0,0,0,0,0,0,0,0,0,0,1,0,0,0,0,0,0.006713867,-0.9007568,-0.1191406,0,0,0,0,0,0
0.5899997,0.7481521,0.8761782,-0.1607354,-0.01100928,0,0,0,0,0,0,0,0,0,0,0,1,0,0,0,0,0,-0.02783203,-0.9232178,-0.1378174,0,0,0,0,0,0
0.5999997,0.6923701,0.9244941,-0.3739345,-0.0471346,0,0,0,0,0,0,0,0,0,0,0,1,0,0,0.09295742,-0.003998169,-0.0242389,-0.02258301,-0.9897461,-0.04638672,0,0,0,0,0,0
0.6099997,0.6604159,0.9485974,-0.4756292,-0.06409187,0,0,0,0,0,0,0,0,0,0,0,1,0,0,0,0,0,-0.01672363,-1.012695,-0.0690918,0,0,0,0,0,0
0.6199997,0.6280115,0.9640176,-0.6416097,-0.083373,0,0,0,0,0,0,0,0,0,0,0,1,0,0,0,0,0,0.007202148,-0.9989014,-0.04785156,0,0,0,0,0,0
0.6299997,0.6035143,0.9712184,-0.798227,-0.09457666,0,0,0,0,0,0,0,0,0,0,0,1,0,0,0.02474068,-0.02723974,-0.03848551,0.05456543,-0.9926758,-0.06054688,0,0,0,0,0,0
0.6399997,0.5879496,0.9879154,-0.862671,-0.09585234,0,0,0,0,0,0,0,0,0,0,0,1,0,0,0,0,0,0.06311035,-1.005249,-0.06103516,0,0,0,0,0,0
0.6499997,0.5552751,0.9947014,-0.9639882,-0.09756966,0,0,0,0,0,0,0,0,0,0,0,1,0,0,0.04123447,-0.01524426,-0.0337373,0.06408691,-1.028198,-0.03186035,0,0,0,0,0,0
0.6599997,0.5149953,1,-1,-0.09812176,0,0,0,0,0,0,0,0,0,0,0,1,0,0,0.04223066,-0.007246681,-0.02473867,0.06652832,-1.036743,-0.04968262,0,0,0,0,0,0
0.6699997,0.4908059,1,-1,-0.09812176,0,0,0,0,0,0,0,0,0,0,0,1,0,0,0,0,0,0.08215332,-1.049194,-0.05969238,0,0,0,0,0,0
0.6799996,0.4498426,1,-1,-0.08240198,0,0,0,0,0,0,0,0,0,0,0,1,0,0,0,0,0,0.04846191,-1.072021,-0.03649902,0,0,0,0,0,0
0.6899996,0.4172379,1,-1,-0.06669273,0,0,0,0,0,0,0,0,0,0,0,1,0,0,0,0,0,0.0480957,-1.076904,-0.03466797,0,0,0,0,0,0
0.6999996,0.3766855,1,-1,-0.05099206,0,0,0,0,0,0,0,0,0,0,0,1,0,0,0.00299883,0.003690868,0.004844264,0.02868652,-1.044556,-0.04040527,0,0,0,0,0,0
0.7099996,0.3524597,1,-1,-0.01960851,0,0,0,0,0,0,0,0,0,0,0,1,0,0,0,0,0,0.04321289,-1.031616,-0.06518555,0,0,0,0,0,0
0.7199996,0.3202776,1,-0.9727282,0.06641117,0,0,0,0,0,0,0,0,0,0,0,1,0,0,0,0,0,0.03308105,-1.002197,-0.06530762,0,0,0,0,0,0
0.7299996,0.2802319,1,-0.8378388,0.1798102,0,0,0,0,0,0,0,0,0,0,0,1,0,0,0,0,0,0.0579834,-1.010864,-0.06665039,0,0,0,0,0,0
0.7399996,0.2562958,1,-0.714138,0.2430313,0,0,0,0,0,0,0,0,0,0,0,1,0,0,0,0,0,0.06738281,-1.005615,-0.07067871,0,0,0,0,0,0
0.7499996,0.2165419,1,-0.5080509,0.3019883,0,0,0,0,0,0,0,0,0,0,0,1,0,0,0,0,0,0.08215332,-0.9567871,-0.1134033,0,0,0,0,0,0
0.7599996,0.1769445,1,-0.3067798,0.2744872,0,0,0,0,0,0,0,0,0,0,0,1,0,0,0,0,0,0.08337402,-0.9710693,-0.05761719,0,0,0,0,0,0
0.7699996,0.1453634,1,-0.008664987,0.009948689,0,0,0,0,0,0,0,0,0,0,0,1,0,0,0.06972374,-0.01224539,0.005248024,0.0880127,-0.9741211,-0.07092285,0,0,0,0,0,0
0.7799996,0.1217254,1,0,0,0,0,0,0,0,0,0,0,0,0,0,1,0,0,0,0,0,0.06347656,-1.003662,-0.0534668,0,0,0,0,0,0
0.7899995,0.09812176,1,0,0,0,0,0,0,0,0,0,0,0,0,0,1,0,0,0,0,0,0.06872559,-1.012573,-0.04003906,0,0,0,0,0,0
0.7999995,0.09026043,1,0,0,0,0,0,0,0,0,0,0,0,0,0,0,0,0,0.07822055,-0.01424464,0.02798946,0.06445313,-0.9858398,-0.03686523,0,0,0,0,0,0
0.8099995,0.08240198,1,0,0,0,0,0,0,0,0,0,0,0,0,0,0,0,0,0,0,0,0.04174805,-0.980957,-0.06640625,0,0,0,0,0,0
0.8199995,0.07454614,1,0,0,0,0,0,0,0,0,0,0,0,0,0,0,0,0,0,0,0,0.02990723,-1.071167,-0.04504395,0,0,0,0,0,0
0.8299995,0.07454614,1,0,0,0,0,0,0,0,0,0,0,0,0,0,0,0,0,0.02873918,-0.0124953,-0.0002499059,-0.03271484,-1.002808,0.05847168,0,0,0,0,0,0
0.8399995,0.09026043,1,0,0,0,0,0,0,0,0,0,0,0,0,0,0,0,0,0,0,0,-0.03979492,-1.015991,0.08691406,0,0,0,0,0,0
0.8499995,0.1532514,1,0,0,0,0,0,0,0,0,0,0,0,0,0,0,0,0,0,0,0,-0.005126953,-1.061646,0.02661133,0,0,0,0,0,0
0.8599995,0.2483314,1,0,0,0,0,0,0,0,0,0,0,0,0,0,0,0,0,-0.05497482,0.005247597,0.0009995422,0.03601074,-1.040405,0.0411377,0,0,0,0,0,0
0.8699995,0.3122526,1,0,0,0,0,0,0,0,0,0,0,0,0,0,0,0,0,0,0,0,0.01818848,-1.041992,0.02746582,0,0,0,0,0,0
0.8799995,0.433522,1,0,0,0,0,0,0,0,0,0,0,0,0,0,0,0,0,0,0,0,0.03173828,-1.072998,-0.02697754,0,0,0,0,0,0
0.8899994,0.5485454,1,0,0,0,0,0,0,0,0,0,0,0,0,0,0,0,0,0,0,0,0.03552246,-1.103394,0.01806641,0,0,0,0,0,0
0.8999994,0.6380451,0.991177,0,0,0,0,0,0,0,0,0,0,0,0,0,1,0,0,0,0,0,0.04077148,-1.113037,0.03051758,0,0,0,0,0,0
0.9099994,0.7414404,0.9017519,0,0,0,0,0,0,0,0,0,0,0,0,0,1,0,0,0,0,0,0.03149414,-1.02771,-0.03112793,0,0,0,0,0,0
0.9199994,0.836441,0.7964199,0,0,0,0,0,0,0,0,0,0,0,0,0,1,0,0,0,0,0,0.0123291,-0.9187012,-0.08312988,0,0,0,0,0,0
0.9299994,0.9380392,0.6346734,0,0,0,0,0,0,0,0,0,0,0,0,0,1,0,0,-0.05547911,-0.01974257,-0.0007497177,0.09460449,-1.023193,-0.2373047,0,0,0,0,0,0
0.9399994,0.9910758,0.497528,0,0,0,0,0,0,0,0,0,0,0,0,0,1,0,0,0,0,0,0.01257324,-0.9926758,-0.1239014,0,0,0,0,0,0
0.9499994,1,0.2882255,0,0,0,0,0,0,0,0,0,0,0,0,0,1,0,0,0,0,0,0.04077148,-1.013428,-0.03283691,0,0,0,0,0,0
0.9599994,1,0.07454614,0,0,0,0,0,0,0,0,0,0,0,0,0,1,0,0,-0.08171923,-0.0337373,-0.03248777,0.1315918,-0.951416,-0.2102051,0,0,0,0,0,0
0.9699994,1,-0.09812176,0,0,0,0,0,0,0,0,0,0,0,0,0,1,0,0,0,0,0,0.0838623,-0.9490967,-0.1936035,0,0,0,0,0,0
0.9799994,0.9671836,-0.3987165,0,0,0,0,0,0,0,0,0,0,0,0,0,1,0,0,0,0,0,0.078125,-0.9923096,-0.1147461,0,0,0,0,0,0
0.9899994,0.8644044,-0.7050672,0,0,0,0,0,0,0,0,0,0,0,0,0,1,0,0,-0.004747826,-0.02898672,-0.04872768,0.08813477,-1.028442,-0.03259277,0,0,0,0,0,0
0.9999993,0.7542298,-0.8420238,0,0,0,0,0,0,0,0,0,0,0,0,0,1,0,0,0,0,0,0.12146,-1.056885,-0.01501465,0,0,0,0,0,0
1.009999,0.5874074,-0.9790122,0,0,0,0,0,0,0,0,0,0,0,0,0,1,0,0,0,0,0,0.1217041,-1.03894,-0.03930664,0,0,0,0,0,0
1.019999,0.4416777,-1,0,0,0,0,0,0,0,0,0,0,0,0,0,1,0,0,-0.06172676,-0.02049228,-0.01899285,0.1044922,-1.009155,-0.06140137,0,0,0,0,0,0
1.029999,0.3605264,-1,0,0,0,0,0,0,0,0,0,0,0,0,0,1,0,0,0,0,0,0.09326172,-1.01123,-0.08532715,0,0,0,0,0,0
1.039999,0.2722459,-1,-0.03807466,0.01099935,0,0,0,0,0,0,0,0,0,0,0,1,0,0,0,0,0,0.06262207,-0.9986572,-0.1142578,0,0,0,0,0,0
1.049999,0.2006854,-1,-0.1011733,0.02572201,0,0,0,0,0,0,0,0,0,0,0,1,0,0,-0.05213351,-0.01268736,-0.007612415,0.04736328,-0.9816895,-0.1107178,0,0,0,0,0,0
1.059999,0.1611441,-1,-0.1458962,0.03171657,0,0,0,0,0,0,0,0,0,0,0,1,0,0,0,0,0,0.05090332,-0.9866943,-0.1268311,0,0,0,0,0,0
1.069999,0.113854,-1,-0.2183715,0.03853615,0,0,0,0,0,0,0,0,0,0,0,1,0,0,0,0,0,0.03674316,-0.994873,-0.1291504,0,0,0,0,0,0
1.079999,0.06669273,-1,-0.2822682,0.04276791,0,0,0,0,0,0,0,0,0,0,0,1,0,0,-0.03498682,-0.01399473,-0.01524426,0.04040527,-0.9854736,-0.1219482,0,0,0,0,0,0
1.089999,0.04314433,-1,-0.3188946,0.04470485,0,0,0,0,0,0,0,0,0,0,0,1,0,0,-0.02624012,-0.0127452,-0.01499435,0.04760742,-0.9915771,-0.1357422,0,0,0,0,0,0
1.099999,-0.02745281,-1,-0.4106761,0.04850505,0,0,0,0,0,0,0,0,0,0,0,1,0,0,-0.01149567,-0.007247271,-0.0124953,0.05529785,-0.9885254,-0.1218262,0,0,0,0,0,0
1.109999,-0.04314433,-1,-0.4379766,0.04280974,0,0,0,0,0,0,0,0,0,0,0,1,0,0,0,0,0,0.05603027,-1,-0.1141357,0,0,0,0,0,0
1.119999,-0.07454614,-1,-0.4747938,0.04377531,0,0,0,0,0,0,0,0,0,0,0,1,0,0,0,0,0,0.05078125,-1.005371,-0.1114502,0,0,0,0,0,0
1.129999,-0.09026043,-1,-0.4930085,0.03740064,0,0,0,0,0,0,0,0,0,0,0,1,0,0,-0.01245668,-0.0004613585,-0.005305622,0.04492188,-1.010254,-0.1080322,0,0,0,0,0,0
1.139999,-0.09812176,-1,-0.5022222,0.03758125,0,0,0,0,0,0,0,0,0,0,0,1,0,0,0,0,0,0.04760742,-1.019897,-0.09765625,0,0,0,0,0,0
1.149999,-0.113854,-1,-0.5114363,0.03775704,0,0,0,0,0,0,0,0,0,0,0,1,0,0,0,0,0,0.04956055,-1.023438,-0.08459473,0,0,0,0,0,0
1.159999,-0.1453634,-1,-0.5114363,0.03775704,0,0,0,0,0,0,0,0,0,0,0,1,0,0,-0.02306793,-0.002537472,-0.004152226,0.05383301,-1.031006,-0.08935547,0,0,0,0,0,0
1.169999,-0.1611441,-1,-0.5114363,0.03775704,0,0,0,0,0,0,0,0,0,0,0,1,0,0,0,0,0,0.05651855,-1.015869,-0.09326172,0,0,0,0,0,0
1.179999,-0.1927661,-1,-0.5022222,0.03758125,0,0,0,0,0,0,0,0,0,0,0,1,0,0,0,0,0,0.06689453,-1.026733,-0.08825684,0,0,0,0,0,0
1.189999,-0.2244794,-1,-0.4745831,0.03702421,0,0,0,0,0,0,0,0,0,0,0,1,0,0,0,0,0,0.07189941,-1.033325,-0.08740234,0,0,0,0,0,0
1.199999,-0.2483314,-1,-0.40091,0.03528008,0,0,0,0,0,0,0,0,0,0,0,1,0,0,0,0,0,0.08361816,-1.055298,-0.09082031,0,0,0,0,0,0
1.209999,-0.2802319,-1,-0.2359937,0.03447099,0,0,0,0,0,0,0,0,0,0,0,1,0,0,0,0,0,0.07922363,-1.05896,-0.09509277,0,0,0,0,0,0
1.219999,-0.2962267,-1,-0.08349611,0.02277167,0,0,0,0,0,0,0,0,0,0,0,1,0,0,0,0,0,0.06542969,-1.025391,-0.1103516,0,0,0,0,0,0
1.229999,-0.3202776,-1,0,0,0,0,0,0,0,0,0,0,0,0,0,1,0,0,0,0,0,0.05371094,-0.9748535,-0.1170654,0,0,0,0,0,0
1.239999,-0.3605264,-1,0,0,0,0,0,0,0,0,0,0,0,0,0,1,0,0,0,0,0,0.05932617,-0.9945068,-0.09814453,0,0,0,0,0,0
1.249999,-0.3766855,-1,0,0,0,0,0,0,0,0,0,0,0,0,0,1,0,0,0,0,0,0.0526123,-0.9862061,-0.1138916,0,0,0,0,0,0
1.259999,-0.4091095,-1,0,0,0,0,0,0,0,0,0,0,0,0,0,1,0,0,0,0,0,0.06091309,-0.9801025,-0.1147461,0,0,0,0,0,0
1.269999,-0.433522,-1,0,0,0,0,0,0,0,0,0,0,0,0,0,1,0,0,0,0,0,0.05859375,-0.9938965,-0.1119385,0,0,0,0,0,0
1.279999,-0.4416777,-1,0,0,0,0,0,0,0,0,0,0,0,0,0,1,0,0,0,0,0,0.05041504,-0.9747314,-0.1092529,0,0,0,0,0,0
1.289999,-0.4416777,-1,0.1512531,0.006390974,0,0,0,0,0,0,0,0,0,0,0,1,0,0,0,0,0,0.06274414,-0.9587402,-0.1685791,0,0,0,0,0,0
1.299999,-0.4416777,-1,0.3357045,0.009073096,0,0,0,0,0,0,0,0,0,0,0,1,0,0,0,0,0,0.07067871,-0.9359131,-0.2038574,0,0,0,0,0,0
1.309999,-0.4416777,-1,0.5202194,0.01033548,0,0,0,0,0,0,0,0,0,0,0,1,0,0,-0.001384075,-0.005536302,-0.005074943,0.05957031,-0.9591064,-0.1748047,0,0,0,0,0,0
1.319999,-0.4416777,-1,0.6217105,0.01078111,0,0,0,0,0,0,0,0,0,0,0,1,0,0,0,0,0,0.07275391,-0.9783936,-0.1641846,0,0,0,0,0,0
1.329999,-0.4416777,-1,0.750865,0,0,0,0,0,0,0,0,0,0,0,0,1,0,0,0,0,0,0.06787109,-0.9909668,-0.1608887,0,0,0,0,0,0
1.339999,-0.3928797,-1,0.8432257,-0.02670851,0,0,0,0,0,0,0,0,0,0,0,1,0,0,0.006996796,-0.0009995422,0.01449336,0.07592773,-0.9920654,-0.1507568,0,0,0,0,0,0
1.349999,-0.3605264,-1,0.8802494,-0.04228272,0,0,0,0,0,0,0,0,0,0,0,1,0,0,0,0,0,0.0802002,-0.9919434,-0.1495361,0,0,0,0,0,0
1.359999,-0.3122526,-1,0.9451737,-0.07390247,0,0,0,0,0,0,0,0,0,0,0,1,0,0,0,0,0,0.06774902,-0.9888916,-0.1363525,0,0,0,0,0,0
1.369999,-0.2882255,-1,0.9730664,-0.08988164,0,0,0,0,0,0,0,0,0,0,0,1,0,0,0,0,0,0.06555176,-0.9974365,-0.130127,0,0,0,0,0,0
1.379999,-0.2483314,-1,1,-0.113854,0,0,0,0,0,0,0,0,0,0,0,1,0,0,0,0,0,0.06335449,-1.008057,-0.1306152,0,0,0,0,0,0
1.389999,-0.2165419,-1,1,-0.113854,0,0,0,0,0,0,0,0,0,0,0,1,0,0,0,0,0,0.06323242,-1.006348,-0.1177979,0,0,0,0,0,0
1.399999,-0.1848525,-1,1,-0.113854,0,0,0,0,0,0,0,0,0,0,0,1,0,0,0.003998169,-0.0004997711,0.0009995422,0.06274414,-1.009033,-0.1258545,0,0,0,0,0,0
1.409999,-0.1690417,-1,0.9824144,-0.09785005,0,0,0,0,0,0,0,0,0,0,0,1,0,0,0,0,0,0.05712891,-1.013672,-0.1350098,0,0,0,0,0,0
1.419999,-0.1453634,-1,0.8896443,-0.0577691,0,0,0,0,0,0,0,0,0,0,0,1,0,0,0,0,0,0.06628418,-1.03418,-0.1262207,0,0,0,0,0,0
1.429999,-0.1217254,-1,0.750972,-0.02615325,0,0,0,0,0,0,0,0,0,0,0,1,0,0,-0.01430211,-0.003921547,-0.006689698,0.06481934,-1.021484,-0.1239014,0,0,0,0,0,0
1.439999,-0.1059862,-1,0.6493684,-0.003627756,0,0,0,0,0,0,0,0,0,0,0,1,0,0,0,0,0,0.07568359,-1.018677,-0.128418,0,0,0,0,0,0
1.449999,-0.09026043,-1,0.4649353,0.01672429,0,0,0,0,0,0,0,0,0,0,0,1,0,0,-0.01983842,-0.003690868,-0.00899649,0.06689453,-1.018188,-0.1270752,0,0,0,0,0,0
1.459999,-0.08240198,-1,0.3267757,0.0209856,0,0,0,0,0,0,0,0,0,0,0,1,0,0,0,0,0,0.06298828,-1.010864,-0.1135254,0,0,0,0,0,0
1.469999,-0.08240198,-1,0.1250818,0.01731901,0,0,0,0,0,0,0,0,0,0,0,1,0,0,0,0,0,0.06860352,-0.9975586,-0.1335449,0,0,0,0,0,0
1.479999,-0.07454614,-1,0,0,0,0,0,0,0,0,0,0,0,0,0,1,0,0,-0.01474445,-0.003498683,-0.007247271,0.0604248,-1.002197,-0.1489258,0,0,0,0,0,0
1.489999,-0.08240198,-1,0,0,0,0,0,0,0,0,0,0,0,0,0,1,0,0,0,0,0,0.06945801,-1.017822,-0.1434326,0,0,0,0,0,0
1.499999,-0.07454614,-1,0,0,0,0,0,0,0,0,0,0,0,0,0,1,0,0,0,0,0,0.05651855,-1.007446,-0.1396484,0,0,0,0,0,0
1.509999,-0.08240198,-1,0,0,0,0,0,0,0,0,0,0,0,0,0,1,0,0,0,0,0,0.05065918,-1.023804,-0.1348877,0,0,0,0,0,0
1.519999,-0.1059862,-1,0,0,0,0,0,0,0,0,0,0,0,0,0,1,0,0,0,0,0,0.06018066,-1.027954,-0.144165,0,0,0,0,0,0
1.529999,-0.1690417,-1,0,0,0,0,0,0,0,0,0,0,0,0,0,1,0,0,0,0,0,0.06164551,-1.011963,-0.159668,0,0,0,0,0,0
1.539999,-0.2562958,-1,0,0,0,0,0,0,0,0,0,0,0,0,0,1,0,0,-0.03673617,-0.01974257,-0.01624388,0.08483887,-0.9667969,-0.19104,0,0,0,0,0,0
1.549999,-0.3444016,-1,0,0,0,0,0,0,0,0,0,0,0,0,0,1,0,0,0,0,0,0.08703613,-0.9116211,-0.1904297,0,0,0,0,0,0
1.559999,-0.5047147,-0.9736622,0,0,0,0,0,0,0,0,0,0,0,0,0,1,0,0,0,0,0,0.1295166,-0.9030762,-0.1923828,0,0,0,0,0,0
1.569999,-0.6233535,-0.893341,0,0,0,0,0,0,0,0,0,0,0,0,0,1,0,0,0,0,0,0.1335449,-0.9228516,-0.1827393,0,0,0,0,0,0
1.579999,-0.8215328,-0.7104076,0,0,0,0,0,0,0,0,0,0,0,0,0,1,0,0,0,0,0,0.119873,-0.9649658,-0.1755371,0,0,0,0,0,0
1.589999,-0.9473591,-0.5113361,0,0,0,0,0,0,0,0,0,0,0,0,0,0,0,0,0.08671735,0.01624388,0.05822808,0.1191406,-1.050171,-0.1165771,0,0,0,0,0,0
1.599999,-0.9790874,-0.4479225,0,0,0,0,0,0,0,0,0,0,0,0,0,0,0,0,0,0,0,0.03466797,-0.9954834,-0.1390381,0,0,0,0,0,0
1.609999,-1,-0.3762585,0,0,0,0,0,0,0,0,0,0,0,0,0,0,0,0,0,0,0,0.01806641,-0.9976807,-0.0703125,0,0,0,0,0,0
1.619999,-1,-0.3042357,0,0,0,0,0,0,0,0,0,0,0,0,0,0,0,0,0.03373455,0.0277373,0.01524302,-0.02160645,-0.9755859,-0.09545898,0,0,0,0,0,0
1.629999,-1,-0.2403741,0,0,0,0,0,0,0,0,0,0,0,0,0,0,0,0,0.01899285,0.009746331,0.007996988,-0.04052734,-1.060425,-0.1176758,0,0,0,0,0,0
1.639999,-1,-0.1690417,0,0,0,0,0,0,0,0,0,0,0,0,0,0,0,0,0,0,0,0.01379395,-1.033447,-0.01965332,0,0,0,0,0,0
1.649999,-1,-0.1296006,0,0,0,0,0,0,0,0,0,0,0,0,0,0,0,0,-0.04751992,0.01268736,-0.004382906,0.02258301,-1.08374,-0.07519531,0,0,0,0,0,0
1.659999,-1,-0.113854,0,0,0,0,0,0,0,0,0,0,0,0,0,0,0,0,0,0,0,0.04638672,-1.036621,-0.08764648,0,0,0,0,0,0
1.669999,-1,-0.08240198,0,0,0,0,0,0,0,0,0,0,0,0,0,1,0,0,0,0,0,0.04748535,-1.007935,-0.09240723,0,0,0,0,0,0
1.679999,-1,-0.05884144,0,0,0,0,0,0,0,0,0,0,0,0,0,1,0,0,0,0,0,0.07080078,-0.9969482,-0.09777832,0,0,0,0,0,0
1.689999,-1,-0.02745281,0,0,0,0,0,0,0,0,0,0,0,0,0,1,0,0,0,0,0,0.07678223,-0.9902344,-0.1281738,0,0,0,0,0,0
1.699999,-1,-0.01176485,0,0,0,0,0,0,0,0,0,0,0,0,0,1,0,0,-0.0379857,0.02698984,-0.01749341,0.005493164,-1.013916,-0.09558105,0,0,0,0,0,0
1.709999,-1,-0.01176485,0,0,0,0,0,0,0,0,0,0,0,0,0,1,0,0,0,0,0,0.09924316,-1.030273,-0.128418,0,0,0,0,0,0
1.719999,-1,-0.01176485,0,0,0,0,0,0,0,0,0,0,0,0,0,1,0,0,0,0,0,0.1011963,-0.9919434,-0.2526855,0,0,0,0,0,0
1.729999,-1,-0.01176485,0,0,0,0,0,0,0,0,0,0,0,0,0,1,0,0,-0.01749341,-0.02599021,-0.01299511,0.08374023,-0.9801025,-0.2348633,0,0,0,0,0,0
1.739999,-1,-0.05884144,0,0,0,0,0,0,0,0,0,0,0,0,0,1,0,0,0,0,0,0.07116699,-0.9588623,-0.2028809,0,0,0,0,0,0
1.749999,-1,-0.2006854,0,0,0,0,0,0,0,0,0,0,0,0,0,1,0,0,0,0,0,0.07922363,-0.9857178,-0.1450195,0,0,0,0,0,0
1.759999,-0.8664827,-0.3691294,0,0,0,0,0,0,0,0,0,0,0,0,0,1,0,0,-0.006247139,-0.02348924,-0.02049061,0.07299805,-0.9804688,-0.145752,0,0,0,0,0,0
1.769999,-0.7578302,-0.4577756,0,0,0,0,0,0,0,0,0,0,0,0,0,1,0,0,0,0,0,0.05407715,-0.9689941,-0.1365967,0,0,0,0,0,0
1.779999,-0.6278888,-0.5441703,0,0,0,0,0,0,0,0,0,0,0,0,0,1,0,0,0,0,0,0.05541992,-0.9866943,-0.1448975,0,0,0,0,0,0
1.789999,-0.4938342,-0.6144654,0,0,0,0,0,0,0,0,0,0,0,0,0,1,0,0,-0.005536302,-0.00899649,-0.01522483,0.06591797,-0.9898682,-0.1672363,0,0,0,0,0,0
1.799999,-0.3943934,-0.6648347,0,0,0,0,0,0,0,0,0,0,0,0,0,1,0,0,0,0,0,0.06298828,-0.9985352,-0.1518555,0,0,0,0,0,0
1.809999,-0.2435601,-0.7231862,0,0,0,0,0,0,0,0,0,0,0,0,0,1,0,0,0,0,0,0.06799316,-1.017212,-0.1506348,0,0,0,0,0,0
1.819999,-0.08680937,-0.7888329,0,0,0,0,0,0,0,0,0,0,0,0,0,1,0,0,-0.01845434,0.0006920377,0.001614755,0.06420898,-1.031006,-0.1497803,0,0,0,0,0,0
1.829999,0.02655276,-0.815549,0,0,0,0,0,0,0,0,0,0,0,0,0,1,0,0,0,0,0,0.06884766,-1.015869,-0.1513672,0,0,0,0,0,0
1.839999,0.1949196,-0.8293635,0,0,0,0,0,0,0,0,0,0,0,0,0,1,0,0,0,0,0,0.06652832,-0.9868164,-0.1697998,0,0,0,0,0,0
1.849999,0.4086985,-0.8602129,0,0,0,0,0,0,0,0,0,0,0,0,0,1,0,0,-0.01824313,0.002249153,0.01049605,0.07910156,-0.9880371,-0.1658936,0,0,0,0,0,0
1.859999,0.5810761,-0.8814964,0,0,0,0,0,0,0,0,0,0,0,0,0,1,0,0,0,0,0,0.08630371,-0.9960938,-0.1472168,0,0,0,0,0,0
1.869999,0.7872236,-0.8271842,0,0,0,0,0,0,0,0,0,0,0,0,0,1,0,0,0,0,0,0.07006836,-1.011475,-0.1245117,0,0,0,0,0,0
1.879999,0.8957555,-0.6568874,0,0,0,0,0,0,0,0,0,0,0,0,0,1,0,0,-0.03773579,0.009996235,0.02249153,0.06286621,-0.9711914,-0.1619873,0,0,0,0,0,0
1.889999,0.9423288,-0.5685782,0.007161358,0.002903253,0,0,0,0,0,0,0,0,0,0,0,1,0,0,0,0,0,0.0546875,-0.9685059,-0.175293,0,0,0,0,0,0
1.899999,0.9726233,-0.4882966,0.02946557,0.008908195,0,0,0,0,0,0,0,0,0,0,0,1,0,0,0,0,0,0.06323242,-0.9969482,-0.1674805,0,0,0,0,0,0
1.909999,1,-0.4167845,0.07173301,0.01488798,0,0,0,0,0,0,0,0,0,0,0,1,0,0,-0.007246681,0.01074508,0.02174004,0.08154297,-1.008057,-0.1473389,0,0,0,0,0,0
1.919999,1,-0.3766855,0.08970223,0.01731096,0,0,0,0,0,0,0,0,0,0,0,1,0,0,0,0,0,0.07324219,-1.009155,-0.1625977,0,0,0,0,0,0
1.929999,1,-0.2882255,0.1250818,0.01731901,0,0,0,0,0,0,0,0,0,0,0,1,0,0,0,0,0,0.08081055,-1.004761,-0.1696777,0,0,0,0,0,0
1.939999,1,-0.1927661,0.1604718,0.006594731,0,0,0,0,0,0,0,0,0,0,0,1,0,0,-0.0004613585,0.01683958,0.03252577,0.07312012,-0.9864502,-0.1704102,0,0,0,0,0,0
1.949998,1,-0.1217254,0.1880046,0,0,0,0,0,0,0,0,0,0,0,0,1,0,0,0,0,0,0.06652832,-0.9730225,-0.1800537,0,0,0,0,0,0
1.959998,1,0.01176485,0.2252042,-0.01294277,0,0,0,0,0,0,0,0,0,0,0,1,0,0,0,0,0,0.0657959,-0.9790039,-0.163208,0,0,0,0,0,0
1.969998,1,0.1296006,0.2629936,-0.03045189,0,0,0,0,0,0,0,0,0,0,0,1,0,0,0.024452,0.01499415,0.03529393,0.03393555,-0.9750977,-0.1652832,0,0,0,0,0,0
1.979998,1,0.1927661,0.2817789,-0.03700127,0,0,0,0,0,0,0,0,0,0,0,1,0,0,0,0,0,0.01074219,-0.989502,-0.1699219,0,0,0,0,0,0
1.989998,1,0.2483314,0.2914186,-0.04327999,0,0,0,0,0,0,0,0,0,0,0,1,0,0,0,0,0,0.01672363,-1.002441,-0.1574707,0,0,0,0,0,0
1.999998,1,0.2882255,0.3005733,-0.04377282,0,0,0,0,0,0,0,0,0,0,0,1,0,0,0.02349116,-0.001749341,0.01174558,0.0324707,-0.9899902,-0.1564941,0,0,0,0,0,0
2.009999,1,0.3122526,0.3005733,-0.04377282,0,0,0,0,0,0,0,0,0,0,0,1,0,0,0,0,0,0.04309082,-0.9882813,-0.1564941,0,0,0,0,0,0
2.019999,1,0.336352,0.3005733,-0.04377282,0,0,0,0,0,0,0,0,0,0,0,1,0,0,0,0,0,0.04931641,-0.9958496,-0.1572266,0,0,0,0,0,0
2.029999,1,0.3766855,0.3005733,-0.04377282,0,0,0,0,0,0,0,0,0,0,0,1,0,0,0.03698608,0.005747836,0.01549417,0.05187988,-1.016357,-0.1507568,0,0,0,0,0,0
2.039999,1,0.4009901,0.2914186,-0.04327999,0,0,0,0,0,0,0,0,0,0,0,1,0,0,0,0,0,0.04980469,-1.028076,-0.1499023,0,0,0,0,0,0
2.049999,1,0.4662001,0.2457176,-0.04050289,0,0,0,0,0,0,0,0,0,0,0,1,0,0,0,0,0,0.05603027,-1.03125,-0.1412354,0,0,0,0,0,0
2.059999,1,0.547518,0.1714181,-0.02514132,0,0,0,0,0,0,0,0,0,0,0,1,0,0,0.02124027,0.01999084,0.02448878,0.05957031,-0.9987793,-0.1452637,0,0,0,0,0,0
2.069999,0.9706661,0.5951821,0.09872177,-0.01840575,0,0,0,0,0,0,0,0,0,0,0,1,0,0,0,0,0,0.05395508,-0.9759521,-0.1541748,0,0,0,0,0,0
2.079998,0.923907,0.6839312,0,0,0,0,0,0,0,0,0,0,0,0,0,1,0,0,0,0,0,0.06066895,-0.958374,-0.1394043,0,0,0,0,0,0
2.089998,0.8593862,0.7554604,0,0,0,0,0,0,0,0,0,0,0,0,0,1,0,0,0.0532869,0.01522483,0.02306793,0.08776855,-0.9459229,-0.1500244,0,0,0,0,0,0
2.099998,0.8432577,0.771321,0,0,0,0,0,0,0,0,0,0,0,0,0,1,0,0,0,0,0,0.02990723,-0.9643555,-0.1320801,0,0,0,0,0,0
2.109998,0.7872236,0.8271842,0,0,0,0,0,0,0,0,0,0,0,0,0,1,0,0,0,0,0,0.03271484,-1.013306,-0.1307373,0,0,0,0,0,0
2.119998,0.7481521,0.8761782,0,0,0,0,0,0,0,0,0,0,0,0,0,1,0,0,0.05582438,0.005766981,0.02399064,0.01318359,-1.018066,-0.1159668,0,0,0,0,0,0
2.129998,0.7153703,0.8912154,0,0,0,0,0,0,0,0,0,0,0,0,0,1,0,0,0,0,0,0.002807617,-1.019653,-0.1147461,0,0,0,0,0,0
2.139998,0.6676687,0.9315377,0,0,0,0,0,0,0,0,0,0,0,0,0,1,0,0,0,0,0,0.01000977,-1.019897,-0.1171875,0,0,0,0,0,0
2.149998,0.6112997,0.9628969,-0.007161358,0.002903253,0,0,0,0,0,0,0,0,0,0,0,1,0,0,0.02174181,-0.003248777,0.001249529,0.02844238,-1.014648,-0.1165771,0,0,0,0,0,0
2.159998,0.5713281,0.9868394,-0.05323202,0.02151933,0,0,0,0,0,0,0,0,0,0,0,1,0,0,0,0,0,0.04272461,-1.02002,-0.1185303,0,0,0,0,0,0
2.169998,0.5309846,1,-0.1097174,0.04649042,0,0,0,0,0,0,0,0,0,0,0,1,0,0,0.01845434,-0.0006920377,-0.002768151,0.04748535,-1.027588,-0.1166992,0,0,0,0,0,0
2.179998,0.4662001,1,-0.1844946,0.08117762,0,0,0,0,0,0,0,0,0,0,0,1,0,0,0,0,0,0.0534668,-1.027466,-0.1087646,0,0,0,0,0,0
2.189998,0.4172379,1,-0.2503305,0.1153208,0,0,0,0,0,0,0,0,0,0,0,1,0,0,0.005497482,0.001249428,-0.00224897,0.05371094,-1.016235,-0.1174316,0,0,0,0,0,0
2.199998,0.3847782,1,-0.2900062,0.146498,0,0,0,0,0,0,0,0,0,0,0,1,0,0,0,0,0,0.04370117,-1.006714,-0.1181641,0,0,0,0,0,0
2.209998,0.3283107,1,-0.3453335,0.1742509,0,0,0,0,0,0,0,0,0,0,0,1,0,0,0,0,0,0.04711914,-0.9981689,-0.1279297,0,0,0,0,0,0
2.219998,0.2802319,1,-0.4006681,0.2019897,0,0,0,0,0,0,0,0,0,0,0,1,0,0,0.002748965,-0.003498683,-0.005747836,0.04162598,-0.9980469,-0.1259766,0,0,0,0,0,0
2.229998,0.2483314,1,-0.4201336,0.2184695,0,0,0,0,0,0,0,0,0,0,0,1,0,0,0,0,0,0.04174805,-1.008911,-0.1343994,0,0,0,0,0,0
2.239998,0.2086106,1,-0.4395467,0.2351064,0,0,0,0,0,0,0,0,0,0,0,1,0,0,0,0,0,0.04284668,-1.014282,-0.1499023,0,0,0,0,0,0
2.249998,0.1848525,1,-0.4492345,0.2434782,0,0,0,0,0,0,0,0,0,0,0,1,0,0,0.005247597,-0.009995421,-0.009995421,0.04833984,-0.9932861,-0.1541748,0,0,0,0,0,0
2.259998,0.1532514,1,-0.4482468,0.2360995,0,0,0,0,0,0,0,0,0,0,0,1,0,0,0,0,0,0.05554199,-1.003296,-0.1505127,0,0,0,0,0,0
2.269998,0.1296006,1,-0.4492345,0.2434782,0,0,0,0,0,0,0,0,0,0,0,1,0,0,0,0,0,0.03051758,-0.9803467,-0.1362305,0,0,0,0,0,0
2.279998,0.1059862,1,-0.4181072,0.2040363,0,0,0,0,0,0,0,0,0,0,0,1,0,0,0,0,0,0.0826416,-1.019287,-0.1916504,0,0,0,0,0,0
2.289998,0.09026043,1,-0.3604906,0.1626993,0,0,0,0,0,0,0,0,0,0,0,1,0,0,0,0,0,0.03393555,-1.03125,-0.1568604,0,0,0,0,0,0
2.299998,0.06669273,1,-0.2232122,0.1048828,0,0,0,0,0,0,0,0,0,0,0,0,0,0,0,0,0,0.01513672,-1.01416,-0.1341553,0,0,0,0,0,0
2.309998,0.06477383,0.8344393,-0.05334941,0.02963856,0,0,0,0,0,0,0,0,0,0,0,0,0,0,0,0,0,-0.005126953,-0.9527588,-0.1304932,0,0,0,0,0,0
2.319998,0.0901009,0.6234982,0,0,0,0,0,0,0,0,0,0,0,0,0,0,0,0,0,0,0,0.04980469,-1.094116,-0.1791992,0,0,0,0,0,0
2.329998,0.1141003,0.283788,0,0,0,0,0,0,0,0,0,0,0,0,0,0,0,0,0,0,0,-0.06445313,-1.011963,0.003173828,0,0,0,0,0,0
2.339998,0.05323202,0.02151933,0,0,0,0,0,0,0,0,0,0,0,0,0,0,0,0,0,0,0,-0.005737305,-1.096802,0.01635742,0,0,0,0,0,0
2.349998,0.006235885,-0.001119261,0,0,0,0,0,0,0,0,0,0,0,0,0,0,0,0,0,0,0,0.05053711,-1.106079,0.005981445,0,0,0,0,0,0
2.359998,0.03982164,-0.05523647,0,0,0,0,0,0,0,0,0,0,0,0,0,0,0,0,0,0,0,0.08666992,-1.007813,-0.03259277,0,0,0,0,0,0
2.369998,0.127029,-0.3377113,0,0,0,0,0,0,0,0,0,0,0,0,0,0,0,0,-0.06572525,-0.004498306,-0.04273391,0.02856445,-1.033447,-0.07568359,0,0,0,0,0,0
2.379998,0.1985462,-0.6028585,0,0,0,0,0,0,0,0,0,0,0,0,0,0,0,0,0,0,0,0.04150391,-1.103271,-0.1107178,0,0,0,0,0,0
2.389998,0.3031126,-0.9801954,0,0,0,0,0,0,0,0,0,0,0,0,0,0,0,0,0,0,0,0.07568359,-1.055664,-0.08837891,0,0,0,0,0,0
2.399998,0.3283107,-1,0,0,0,0,0,0,0,0,0,0,0,0,0,1,0,0,0,0,0,0.08239746,-1.073364,-0.0009765625,0,0,0,0,0,0
2.409998,0.3042357,-1,0,0,0,0,0,0,0,0,0,0,0,0,0,1,0,0,0,0,0,0.1008301,-1.025879,-0.09814453,0,0,0,0,0,0
2.419998,0.2722459,-1,0,0.003460207,0,0,0,0,0,0,0,0,0,0,0,1,0,0,0,0,0,-0.004516602,-0.9316406,-0.1447754,0,0,0,0,0,0
2.429998,0.2562958,-1,0,0.06805075,0,0,0,0,0,0,0,0,0,0,0,1,0,0,0,0,0,0.1179199,-0.9848633,-0.2333984,0,0,0,0,0,0
2.439998,0.2244794,-1,-0.005947072,0.1328179,0,0,0,0,0,0,0,0,0,0,0,1,0,0,0,0,0,0.09106445,-0.9335938,-0.2647705,0,0,0,0,0,0
2.449998,0.1927661,-1,-0.01631838,0.1795021,0,0,0,0,0,0,0,0,0,0,0,1,0,0,-0.03698608,-0.04298382,-0.02249153,0.09777832,-0.9221191,-0.2519531,0,0,0,0,0,0
2.459998,0.1848525,-1,-0.01671966,0.1886933,0,0,0,0,0,0,0,0,0,0,0,1,0,0,0,0,0,0.09777832,-0.9127197,-0.2191162,0,0,0,0,0,0
2.469998,0.1690417,-1,-0.02154746,0.1891388,0,0,0,0,0,0,0,0,0,0,0,1,0,0,0,0,0,0.0847168,-0.9476318,-0.1845703,0,0,0,0,0,0
2.479998,0.1611441,-1,-0.02154746,0.1891388,0,0,0,0,0,0,0,0,0,0,0,1,0,0,-0.01724351,-0.02274144,-0.007247271,0.08483887,-0.9609375,-0.1685791,0,0,0,0,0,0
2.489998,0.1532514,-1,-0.02154746,0.1891388,0,0,0,0,0,0,0,0,0,0,0,1,0,0,0,0,0,0.0657959,-0.9699707,-0.1405029,0,0,0,0,0,0
2.499998,0.1453634,-1,-0.02154746,0.1891388,0,0,0,0,0,0,0,0,0,0,0,1,0,0,0,0,0,0.06054688,-0.9847412,-0.1743164,0,0,0,0,0,0
2.509998,0.1296006,-1,-0.02103553,0.1799706,0,0,0,0,0,0,0,0,0,0,0,1,0,0,0,0,0,0.04553223,-0.9908447,-0.1865234,0,0,0,0,0,0
2.519998,0.1059862,-1,-0.02049686,0.1708072,0,0,0,0,0,0,0,0,0,0,0,1,0,0,0.009996235,-0.003248777,-0.002249153,0.04333496,-1.00061,-0.1733398,0,0,0,0,0,0
2.529998,0.09812176,-1,-0.01992933,0.161649,0,0,0,0,0,0,0,0,0,0,0,1,0,0,0,0,0,0.05358887,-1.005005,-0.1845703,0,0,0,0,0,0
2.539998,0.07454614,-1,-0.01933056,0.1524967,0,0,0,0,0,0,0,0,0,0,0,1,0,0,0,0,0,0.05725098,-1.013916,-0.1707764,0,0,0,0,0,0
2.549998,0.05884144,-1,-0.01869793,0.1433508,0,0,0,0,0,0,0,0,0,0,0,1,0,0,0,0,0,0.06201172,-1.014526,-0.1647949,0,0,0,0,0,0
2.559998,0.04314433,-1,-0.01869793,0.1433508,0,0,0,0,0,0,0,0,0,0,0,1,0,0,0,0,0,0.0645752,-1.016724,-0.1612549,0,0,0,0,0,0
2.569998,0.02745281,-1,-0.01869793,0.1433508,0,0,0,0,0,0,0,0,0,0,0,1,0,0,0,0,0,0.06591797,-1.004761,-0.1556396,0,0,0,0,0,0
2.579998,0.003921574,-1,-0.01802851,0.1342122,0,0,0,0,0,0,0,0,0,0,0,1,0,0,-0.008073773,-0.001384075,-0.002768151,0.06323242,-0.9953613,-0.1425781,0,0,0,0,0,0
2.589998,0,-1,-0.01802851,0.1342122,0,0,0,0,0,0,0,0,0,0,0,1,0,0,0,0,0,0.06652832,-0.9952393,-0.1490479,0,0,0,0,0,0
2.599998,-0.01960851,-1,-0.01802851,0.1342122,0,0,0,0,0,0,0,0,0,0,0,1,0,0,-0.003998494,-0.001249529,-0.0004998118,0.06982422,-0.9915771,-0.1495361,0,0,0,0,0,0
2.609998,-0.02745281,-1,-0.01802851,0.1342122,0,0,0,0,0,0,0,0,0,0,0,1,0,0,0,0,0,0.06628418,-0.9898682,-0.151123,0,0,0,0,0,0
2.619998,-0.035298,-1,-0.01802851,0.1342122,0,0,0,0,0,0,0,0,0,0,0,1,0,0,0,0,0,0.06311035,-0.9929199,-0.1531982,0,0,0,0,0,0
2.629998,-0.04314433,-1,-0.01802851,0.1342122,0,0,0,0,0,0,0,0,0,0,0,1,0,0,-0.0004998118,-0.0009996236,-0.001499435,0.05895996,-0.9912109,-0.1550293,0,0,0,0,0,0
2.639998,-0.04314433,-1,-0.01395786,0.1335966,0,0,0,0,0,0,0,0,0,0,0,1,0,0,0,0,0,0.05834961,-0.9970703,-0.1556396,0,0,0,0,0,0
2.649998,-0.04314433,-1,-0.01395786,0.1335966,0,0,0,0,0,0,0,0,0,0,0,1,0,0,0,0,0,0.0559082,-0.9996338,-0.15979,0,0,0,0,0,0
2.659998,-0.04314433,-1,-0.009935125,0.1331307,0,0,0,0,0,0,0,0,0,0,0,1,0,0,-0.002998627,-0.001499313,-0.003248512,0.0579834,-1.001221,-0.1578369,0,0,0,0,0,0
2.669998,-0.05099206,-1,-0.005947072,0.1328179,0,0,0,0,0,0,0,0,0,0,0,1,0,0,0,0,0,0.05908203,-1.012817,-0.1489258,0,0,0,0,0,0
2.679998,-0.05099206,-1,0.001980014,0.132661,0,0,0,0,0,0,0,0,0,0,0,1,0,0,0,0,0,0.05566406,-1.004639,-0.1580811,0,0,0,0,0,0
2.689998,-0.04314433,-1,0.01395786,0.1335966,0,0,0,0,0,0,0,0,0,0,0,1,0,0,-0.01299511,-0.003498683,-0.004748212,0.05541992,-1.004395,-0.1555176,0,0,0,0,0,0
2.699998,-0.04314433,-1,0.02296755,0.1440692,0,0,0,0,0,0,0,0,0,0,0,1,0,0,0,0,0,0.05688477,-0.9970703,-0.1558838,0,0,0,0,0,0
2.709998,-0.04314433,-1,0.03840646,0.1649219,0,0,0,0,0,0,0,0,0,0,0,1,0,0,-0.01430211,-0.00299883,-0.006689698,0.06054688,-0.9968262,-0.1621094,0,0,0,0,0,0
2.719998,-0.05099206,-1,0.06876258,0.2062877,0,0,0,0,0,0,0,0,0,0,0,1,0,0,0,0,0,0.0682373,-0.9967041,-0.1584473,0,0,0,0,0,0
2.729998,-0.05099206,-1,0.1153208,0.2503305,0,0,0,0,0,0,0,0,0,0,0,1,0,0,0,0,0,0.07019043,-0.9996338,-0.1605225,0,0,0,0,0,0
2.739998,-0.05884144,-1,0.1959147,0.307866,0,0,0,0,0,0,0,0,0,0,0,1,0,0,0,0,0,0.06860352,-1.003296,-0.1627197,0,0,0,0,0,0
2.749998,-0.07454614,-1,0.2747677,0.3542186,0,0,0,0,0,0,0,0,0,0,0,1,0,0,0,0,0,0.07202148,-1.012085,-0.1572266,0,0,0,0,0,0
2.759998,-0.09812176,-1,0.4252802,0.4324278,0,0,0,0,0,0,0,0,0,0,0,1,0,0,0,0,0,0.07189941,-1.013062,-0.1618652,0,0,0,0,0,0
2.769998,-0.1374799,-1,0.5794695,0.4822681,0,0,0,0,0,0,0,0,0,0,0,1,0,0,-0.02499059,-0.006247648,-0.00674746,0.08178711,-0.9904785,-0.1799316,0,0,0,0,0,0
2.779998,-0.1690417,-1,0.6921067,0.500917,0,0,0,0,0,0,0,0,0,0,0,1,0,0,0,0,0,0.08508301,-0.9884033,-0.1818848,0,0,0,0,0,0
2.789998,-0.2324234,-1,0.8595467,0.5220078,0,0,0,0,0,0,0,0,0,0,0,1,0,0,0,0,0,0.08691406,-0.970459,-0.1820068,0,0,0,0,0,0
2.799998,-0.3202776,-1,0.965771,0.520642,0,0,0,0,0,0,0,0,0,0,0,1,0,0,0.0133794,0.001614755,0.007381736,0.07617188,-0.9407959,-0.1975098,0,0,0,0,0,0
2.809998,-0.4091095,-1,0.9975828,0.4570599,0,0,0,0,0,0,0,0,0,0,0,1,0,0,0,0,0,0.1109619,-0.9887695,-0.1696777,0,0,0,0,0,0
2.819998,-0.5520143,-0.9412041,1,0.3605264,0,0,0,0,0,0,0,0,0,0,0,1,0,0,0,0,0,0.08642578,-1.00708,-0.1546631,0,0,0,0,0,0
2.829998,-0.7104076,-0.8215328,1,0.2722459,0,0,0,0,0,0,0,0,0,0,0,1,0,0,0.007996988,0.007247271,0.01549417,0.09606934,-1.023682,-0.1444092,0,0,0,0,0,0
2.839998,-0.812862,-0.7097673,1,0.2165419,0,0,0,0,0,0,0,0,0,0,0,1,0,0,0,0,0,0.0982666,-1.027466,-0.1387939,0,0,0,0,0,0
2.849998,-0.8921341,-0.6066512,1,0.1217254,0,0,0,0,0,0,0,0,0,0,0,1,0,0,0,0,0,0.07165527,-1.006226,-0.1682129,0,0,0,0,0,0
2.859998,-0.9003575,-0.5989163,1,0.01960851,0,0,0,0,0,0,0,0,0,0,0,1,0,0,-0.02923899,0.01499435,0.01074595,0.02575684,-1.014771,-0.1737061,0,0,0,0,0,0
2.869998,-0.9003575,-0.5989163,1,-0.035298,0,0,0,0,0,0,0,0,0,0,0,1,0,0,0,0,0,0.02954102,-1.007568,-0.175415,0,0,0,0,0,0
2.879998,-0.9003575,-0.5989163,1,-0.09812176,0,0,0,0,0,0,0,0,0,0,0,1,0,0,0,0,0,0.03381348,-0.9929199,-0.1750488,0,0,0,0,0,0
2.889998,-0.9003575,-0.5989163,1,-0.1296006,0,0,0,0,0,0,0,0,0,0,0,1,0,0,0,0,0,0.03735352,-1.026733,-0.1618652,0,0,0,0,0,0
2.899998,-0.9003575,-0.5989163,1,-0.1453634,0,0,0,0,0,0,0,0,0,0,0,1,0,0,0,0,0,0.0567627,-1.031372,-0.161499,0,0,0,0,0,0
2.909998,-0.8839297,-0.6143906,1,-0.1769445,0,0,0,0,0,0,0,0,0,0,0,1,0,0,0,0,0,0.06982422,-1.013794,-0.1744385,0,0,0,0,0,0
2.919998,-0.851301,-0.645405,1,-0.2006854,0,0,0,0,0,0,0,0,0,0,0,1,0,0,0,0,0,0.07958984,-1.001099,-0.1712646,0,0,0,0,0,0
2.929998,-0.8444564,-0.6700147,1,-0.2244794,0,0,0,0,0,0,0,0,0,0,0,1,0,0,0,0,0,0.08618164,-0.9920654,-0.1782227,0,0,0,0,0,0
2.939998,-0.8208937,-0.7019236,1,-0.2562958,0,0,0,0,0,0,0,0,0,0,0,1,0,0,0,0,0,0.07397461,-0.9801025,-0.177124,0,0,0,0,0,0
2.949998,-0.7882122,-0.7248383,1,-0.2882255,0,0,0,0,0,0,0,0,0,0,0,1,0,0,0,0,0,0.08068848,-0.9730225,-0.1895752,0,0,0,0,0,0
2.959998,-0.7722851,-0.7406016,1,-0.3042357,0,0,0,0,0,0,0,0,0,0,0,1,0,0,0,0,0,0.07763672,-0.9698486,-0.1907959,0,0,0,0,0,0
2.969998,-0.756416,-0.756416,1,-0.336352,0,0,0,0,0,0,0,0,0,0,0,1,0,0,0,0,0,0.07263184,-0.9576416,-0.1866455,0,0,0,0,0,0
2.979998,-0.7327139,-0.7802412,1,-0.3605264,0,0,0,0,0,0,0,0,0,0,0,1,0,0,0.001384075,-0.0002306792,0.008073773,0.05932617,-0.9516602,-0.1900635,0,0,0,0,0,0
2.989998,-0.7169749,-0.7961985,1,-0.3766855,0,0,0,0,0,0,0,0,0,0,0,1,0,0,0,0,0,0.05053711,-0.9742432,-0.1835938,0,0,0,0,0,0
2.999998,-0.7012812,-0.8122184,1,-0.4009901,0,0,0,0,0,0,0,0,0,0,0,1,0,0,0,0,0,0.05090332,-0.9932861,-0.1745605,0,0,0,0,0,0
3.009998,-0.7012812,-0.8122184,1,-0.4172379,0,0,0,0,0,0,0,0,0,0,0,1,0,0,-0.01024614,-0.003748589,-0.006497554,0.05114746,-0.9868164,-0.1943359,0,0,0,0,0,0
3.019998,-0.7012812,-0.8122184,1,-0.4253754,0,0,0,0,0,0,0,0,0,0,0,1,0,0,0,0,0,0.05651855,-0.9921875,-0.2015381,0,0,0,0,0,0
3.029998,-0.7019236,-0.8208937,1,-0.4249173,0,0,0,0,0,0,0,0,0,0,0,1,0,0,0,0,0,0.06030273,-0.9980469,-0.2033691,0,0,0,0,0,0
3.039998,-0.7012812,-0.8122184,1,-0.4249173,0,0,0,0,0,0,0,0,0,0,0,1,0,0,0,0,0,0.06079102,-1.001343,-0.1970215,0,0,0,0,0,0
3.049998,-0.7012812,-0.8122184,1,-0.4249173,0,0,0,0,0,0,0,0,0,0,0,1,0,0,0,0,0,0.06359863,-0.994751,-0.1972656,0,0,0,0,0,0
3.059998,-0.7012812,-0.8122184,1,-0.4249173,0,0,0,0,0,0,0,0,0,0,0,1,0,0,0,0,0,0.06933594,-0.9836426,-0.1999512,0,0,0,0,0,0
3.069998,-0.7012812,-0.8122184,1,-0.4249173,0,0,0,0,0,0,0,0,0,0,0,1,0,0,-0.001999084,0.0004997711,0.0004997711,0.07177734,-0.982666,-0.1932373,0,0,0,0,0,0
3.079998,-0.718264,-0.8135034,1,-0.4249173,0,0,0,0,0,0,0,0,0,0,0,1,0,0,0,0,0,0.07104492,-0.9821777,-0.1938477,0,0,0,0,0,0
3.089998,-0.7340094,-0.7974913,1,-0.4249173,0,0,0,0,0,0,0,0,0,0,0,1,0,0,0,0,0,0.07519531,-0.9887695,-0.1956787,0,0,0,0,0,0
3.099998,-0.7491536,-0.7729362,1,-0.4249173,0,0,0,0,0,0,0,0,0,0,0,1,0,0,0.0177623,0.008073773,0.01268736,0.07592773,-1.013062,-0.1856689,0,0,0,0,0,0
3.109998,-0.7577157,-0.7735841,1,-0.4249173,0,0,0,0,0,0,0,0,0,0,0,1,0,0,0,0,0,0.06811523,-1.039673,-0.1784668,0,0,0,0,0,0
3.119998,-0.7656432,-0.7656432,1,-0.3605264,0,0,0,0,0,0,0,0,0,0,0,1,0,0,0,0,0,0.03503418,-1.079956,-0.1578369,0,0,0,0,0,0
3.129997,-0.7656432,-0.7656432,0.8859923,-0.2360067,0,0,0,0,0,0,0,0,0,0,0,1,0,0,-0.02906558,0.0110726,0.008304453,0.02038574,-1.019409,-0.1766357,0,0,0,0,0,0
3.139997,-0.7656432,-0.7656432,0.6820471,-0.1659034,0,0,0,0,0,0,0,0,0,0,0,1,0,0,0,0,0,0.0480957,-0.9832764,-0.1586914,0,0,0,0,0,0
3.149997,-0.7656432,-0.7656432,0.1903465,-0.03132284,0,0,0,0,0,0,0,0,0,0,0,1,0,0,0,0,0,0.06921387,-0.9261475,-0.1837158,0,0,0,0,0,0
3.159997,-0.7570676,-0.764995,0,0,0,0,0,0,0,0,0,0,0,0,0,1,0,0,0,0,0,0.1347656,-0.9257813,-0.2315674,0,0,0,0,0,0
3.169997,-0.7327139,-0.7802412,0,0,0,0,0,0,0,0,0,0,0,0,0,1,0,0,0,0,0,0.06652832,-0.9106445,-0.2272949,0,0,0,0,0,0
3.179997,-0.7012812,-0.8122184,0,0,0,0,0,0,0,0,0,0,0,0,0,1,0,0,0.03673318,0.0002498855,0.003998169,0.08813477,-0.9621582,-0.1865234,0,0,0,0,0,0
3.189997,-0.6700147,-0.8444564,0,0,0,0,0,0,0,0,0,0,0,0,0,1,0,0,0,0,0,0.07922363,-0.9869385,-0.1717529,0,0,0,0,0,0
3.199997,-0.6066512,-0.8921341,0,0,0,0,0,0,0,0,0,0,0,0,0,1,0,0,0,0,0,0.06311035,-1.001099,-0.1929932,0,0,0,0,0,0
3.209997,-0.5354926,-0.9400869,0,0,0,0,0,0,0,0,0,0,0,0,0,1,0,0,0.01149567,-0.01299511,-0.0004998118,0.0567627,-0.9934082,-0.1898193,0,0,0,0,0,0
3.219997,-0.5041893,-0.9647085,0,0,0,0,0,0,0,0,0,0,0,0,0,1,0,0,0,0,0,0.05517578,-0.9936523,-0.1849365,0,0,0,0,0,0
3.229997,-0.4484112,-0.9880918,0,0,0,0,0,0,0,0,0,0,0,0,0,1,0,0,0,0,0,0.05932617,-0.9967041,-0.196167,0,0,0,0,0,0
3.239997,-0.4172379,-1,0,0,0,0,0,0,0,0,0,0,0,0,0,1,0,0,0,0,0,0.06396484,-1.00647,-0.2088623,0,0,0,0,0,0
3.249997,-0.3847782,-1,0,0,0,0,0,0,0,0,0,0,0,0,0,1,0,0,0.005766981,-0.01268736,-0.01499415,0.08349609,-1.004517,-0.229126,0,0,0,0,0,0
3.259997,-0.3766855,-1,0,0,0,0,0,0,0,0,0,0,0,0,0,1,0,0,0.02983477,-0.02745099,-0.01318721,0.05310059,-1.015869,-0.2054443,0,0,0,0,0,0
3.269997,-0.3686016,-1,0,0,0,0,0,0,0,0,0,0,0,0,0,1,0,0,0.0224897,-0.006996796,0.01474325,0.08666992,-1.050171,-0.2142334,0,0,0,0,0,0
3.279997,-0.3686016,-1,0,0,0,0,0,0,0,0,0,0,0,0,0,1,0,0,0.04348363,-0.01749341,0.02174181,0.08874512,-0.9483643,-0.2218018,0,0,0,0,0,0
3.289997,-0.3686016,-1,0,0,0,0,0,0,0,0,0,0,0,0,0,0,0,0,0,0,0,0.06689453,-0.8917236,-0.2641602,0,0,0,0,0,0
3.299997,-0.3928797,-1,0,0,0,0,0,0,0,0,0,0,0,0,0,0,0,0,0,0,0,0.05249023,-0.9564209,-0.1525879,0,0,0,0,0,0
3.309997,-0.4172379,-1,0,0,0,0,0,0,0,0,0,0,0,0,0,0,0,0,0,0,0,0.02062988,-0.9498291,-0.03137207,0,0,0,0,0,0
3.319997,-0.433522,-1,0,0,0,0,0,0,0,0,0,0,0,0,0,0,0,0,0,0,0,0.002197266,-0.9725342,-0.07739258,0,0,0,0,0,0
3.329997,-0.433522,-1,0,0,0,0,0,0,0,0,0,0,0,0,0,0,0,0,0,0,0,0.03466797,-1.037354,-0.1599121,0,0,0,0,0,0
3.339997,-0.4416777,-1,0,0,0,0,0,0,0,0,0,0,0,0,0,0,0,0,-0.02223982,-0.007496567,-0.01624256,0.02612305,-0.9675293,-0.1588135,0,0,0,0,0,0
3.349997,-0.4416777,-1,0,0,0,0,0,0,0,0,0,0,0,0,0,0,0,0,0,0,0,0.02661133,-0.9718018,-0.1566162,0,0,0,0,0,0
3.359997,-0.4253754,-1,0,0,0,0,0,0,0,0,0,0,0,0,0,0,0,0,0,0,0,0.07263184,-1.008057,-0.1114502,0,0,0,0,0,0
3.369997,-0.3928797,-1,0,0,0,0,0,0,0,0,0,0,0,0,0,0,0,0,0.001153396,0.01407143,-0.01038057,0.07336426,-0.9887695,-0.1625977,0,0,0,0,0,0
3.379997,-0.3605264,-1,0,0,0,0,0,0,0,0,0,0,0,0,0,0,0,0,0,0,0,0.09838867,-1.026611,-0.1547852,0,0,0,0,0,0
3.389997,-0.2802319,-1,0,0,0,0,0,0,0,0,0,0,0,0,0,0,0,0,0,0,0,0.01599121,-1.035889,-0.1329346,0,0,0,0,0,0
3.399997,-0.1611441,-1,0,0,0,0,0,0,0,0,0,0,0,0,0,0,0,0,-0.003248777,0.03298758,0.02873918,0.09838867,-1.011108,-0.1741943,0,0,0,0,0,0
3.409997,-0.05884144,-1,0,0,0,0,0,0,0,0,0,0,0,0,0,1,0,0,0,0,0,0.09338379,-0.9735107,-0.184082,0,0,0,0,0,0
3.419997,0.113854,-1,0,0,0,0,0,0,0,0,0,0,0,0,0,1,0,0,0,0,0,0.09680176,-1.012695,-0.2163086,0,0,0,0,0,0
3.429997,0.2802319,-1,0,0,0,0,0,0,0,0,0,0,0,0,0,1,0,0,-0.02348924,0.0207405,0.02398901,0.07019043,-1.015503,-0.09838867,0,0,0,0,0,0
3.439997,0.3686016,-1,0,0,0,0,0,0,0,0,0,0,0,0,0,1,0,0,0,0,0,0.03210449,-1.025757,-0.1523438,0,0,0,0,0,0
3.449997,0.4657205,-1,0,0,0,0,0,0,0,0,0,0,0,0,0,1,0,0,0,0,0,0.08325195,-1.03772,-0.2225342,0,0,0,0,0,0
3.459997,0.5129389,-0.9741862,0,0,0,0,0,0,0,0,0,0,0,0,0,1,0,0,-0.02074219,-0.01074595,0.02199172,0.05554199,-0.9559326,-0.2426758,0,0,0,0,0,0
3.469997,0.5376719,-0.9757748,0,0,0,0,0,0,0,0,0,0,0,0,0,1,0,0,0,0,0,0.08276367,-0.9643555,-0.2731934,0,0,0,0,0,0
3.479997,0.5459362,-0.9763092,0,0,0,0,0,0,0,0,0,0,0,0,0,1,0,0,0.009246519,-0.0127452,0.003498683,0.08105469,-0.9824219,-0.2144775,0,0,0,0,0,0
3.489997,0.5542106,-0.976846,0,0,0,0,0,0,0,0,0,0,0,0,0,1,0,0,0,0,0,0.07067871,-0.9908447,-0.1783447,0,0,0,0,0,0
3.499997,0.5707892,-0.9779255,0,0,0,0,0,0,0,0,0,0,0,0,0,1,0,0,0,0,0,0.06713867,-1.000854,-0.1829834,0,0,0,0,0,0
3.509997,0.5874074,-0.9790122,0,0,0,0,0,0,0,0,0,0,0,0,0,1,0,0,-0.002076113,0.002076113,-0.003690868,0.06311035,-0.9929199,-0.1807861,0,0,0,0,0,0
3.519997,0.5874074,-0.9790122,0,0,0,0,0,0,0,0,0,0,0,0,0,1,0,0,0,0,0,0.06408691,-0.9868164,-0.1855469,0,0,0,0,0,0
3.529997,0.5957312,-0.979558,0,0,0,0,0,0,0,0,0,0,0,0,0,1,0,0,0,0,0,0.06054688,-0.9937744,-0.1746826,0,0,0,0,0,0
3.539997,0.5957312,-0.979558,0,0,0,0,0,0,0,0,0,0,0,0,0,1,0,0,-0.002249153,0.0007497177,-0.001999247,0.06408691,-0.9973145,-0.1719971,0,0,0,0,0,0
3.549997,0.5957312,-0.979558,0,0,0,0,0,0,0,0,0,0,0,0,0,1,0,0,0,0,0,0.06555176,-0.9957275,-0.1795654,0,0,0,0,0,0
3.559997,0.6040648,-0.980105,0,0,0,0,0,0,0,0,0,0,0,0,0,1,0,0,0,0,0,0.06628418,-0.987915,-0.1821289,0,0,0,0,0,0
3.569997,0.6207611,-0.981203,0,0,0,0,0,0,0,0,0,0,0,0,0,1,0,0,0.001499435,-0.001749341,0.01049605,0.07202148,-0.9865723,-0.1776123,0,0,0,0,0,0
3.579997,0.6285701,-0.9728824,0,0,0,0,0,0,0,0,0,0,0,0,0,1,0,0,0,0,0,0.07226563,-0.9882813,-0.1778564,0,0,0,0,0,0
3.589997,0.6682492,-0.9403506,0,0,0,0,0,0,0,0,0,0,0,0,0,1,0,0,0,0,0,0.07287598,-0.9897461,-0.1776123,0,0,0,0,0,0
3.599997,0.7165664,-0.9087183,0,0,0,0,0,0,0,0,0,0,0,0,0,1,0,0,0.008496109,0.003748283,0.0207405,0.0723877,-0.9888916,-0.1748047,0,0,0,0,0,0
3.609997,0.763997,-0.8599966,0,0,0,0,0,0,0,0,0,0,0,0,0,1,0,0,0,0,0,0.07055664,-0.9914551,-0.1766357,0,0,0,0,0,0
3.619997,0.8414034,-0.7456988,0,0,0,0,0,0,0,0,0,0,0,0,0,1,0,0,0,0,0,0.07434082,-0.9866943,-0.1745605,0,0,0,0,0,0
3.629997,0.9268799,-0.6006819,0,0,0,0,0,0,0,0,0,0,0,0,0,1,0,0,0.006497554,0.01724351,0.03123824,0.06274414,-1.001343,-0.1766357,0,0,0,0,0,0
3.639997,0.9810852,-0.4806126,0,0,0,0,0,0,0,0,0,0,0,0,0,1,0,0,0,0,0,0.05200195,-0.9992676,-0.1938477,0,0,0,0,0,0
3.649997,1,-0.2962267,0,0,0,0,0,0,0,0,0,0,0,0,0,1,0,0,0,0,0,0.02600098,-0.9967041,-0.1761475,0,0,0,0,0,0
3.659997,1,-0.1690417,0,0,0,0,0,0,0,0,0,0,0,0,0,1,0,0,0.002076113,0.01522483,0.02745083,-0.001586914,-0.9874268,-0.194458,0,0,0,0,0,0
3.669997,1,-0.1217254,0,0,0,0,0,0,0,0,0,0,0,0,0,1,0,0,0,0,0,0.004638672,-1.00708,-0.1882324,0,0,0,0,0,0
3.679997,1,-0.09026043,0,0,0,0,0,0,0,0,0,0,0,0,0,1,0,0,0,0,0,0.02685547,-1.027466,-0.15979,0,0,0,0,0,0
3.689997,1,-0.07454614,0,0,0,0,0,0,0,0,0,0,0,0,0,1,0,0,-0.008246895,-0.001249529,-0.0007497177,0.03747559,-1.00354,-0.1756592,0,0,0,0,0,0
3.699997,1,-0.06669273,0,0,0,0,0,0,0,0,0,0,0,0,0,1,0,0,0,0,0,0.05175781,-1.001465,-0.1779785,0,0,0,0,0,0
3.709997,1,-0.06669273,0,0,0,0,0,0,0,0,0,0,0,0,0,1,0,0,0,0,0,0.06726074,-1,-0.1641846,0,0,0,0,0,0
3.719997,1,-0.06669273,0,0,0,0,0,0,0,0,0,0,0,0,0,1,0,0,-0.007747083,0.001249529,0.00674746,0.06884766,-1.00061,-0.1584473,0,0,0,0,0,0
3.729997,1,-0.06669273,0,0,0,0,0,0,0,0,0,0,0,0,0,1,0,0,0,0,0,0.04907227,-0.9873047,-0.1732178,0,0,0,0,0,0
3.739997,1,-0.113854,0,0,0,0,0,0,0,0,0,0,0,0,0,1,0,0,0,0,0,0.02990723,-0.9837646,-0.171875,0,0,0,0,0,0
3.749997,1,-0.1848525,0,0,0,0,0,0,0,0,0,0,0,0,0,1,0,0,0.004152226,0.002306792,0.001153396,0.02648926,-1.01416,-0.1601563,0,0,0,0,0,0
3.759997,1,-0.3766855,-0.1236017,0.005704696,0,0,0,0,0,0,0,0,0,0,0,1,0,0,0,0,0,0.03405762,-1.024048,-0.1760254,0,0,0,0,0,0
3.769997,0.9568346,-0.5201051,-0.2802858,-0.00283117,0,0,0,0,0,0,0,0,0,0,0,1,0,0,-0.01124485,-0.005747368,-0.01449336,0.04821777,-1.000366,-0.1829834,0,0,0,0,0,0
3.779997,0.9186182,-0.6084355,-0.4005067,-0.02242838,0,0,0,0,0,0,0,0,0,0,0,1,0,0,0,0,0,0.06384277,-0.9976807,-0.171875,0,0,0,0,0,0
3.789997,0.8637865,-0.696602,-0.5764999,-0.06012575,0,0,0,0,0,0,0,0,0,0,0,1,0,0,0,0,0,0.07556152,-1.000732,-0.1760254,0,0,0,0,0,0
3.799997,0.8080384,-0.7602726,-0.7164806,-0.122507,0,0,0,0,0,0,0,0,0,0,0,1,0,0,-0.01599267,-0.004747826,-0.01149474,0.0637207,-1.003784,-0.177002,0,0,0,0,0,0
3.809997,0.7933249,-0.7933249,-0.8002412,-0.1554971,0,0,0,0,0,0,0,0,0,0,0,1,0,0,0,0,0,0.05456543,-0.9914551,-0.1838379,0,0,0,0,0,0
3.819997,0.7615291,-0.8253221,-0.8751109,-0.1966108,0,0,0,0,0,0,0,0,0,0,0,1,0,0,0,0,0,0.05297852,-0.9720459,-0.1896973,0,0,0,0,0,0
3.829997,0.7456988,-0.8414034,-0.9496191,-0.2305659,0,0,0,0,0,0,0,0,0,0,0,1,0,0,-0.005766981,-0.002768151,-0.00322951,0.05554199,-0.973999,-0.185791,0,0,0,0,0,0
3.839997,0.7377991,-0.849466,-0.9956888,-0.2400673,0,0,0,0,0,0,0,0,0,0,0,1,0,0,0,0,0,0.05297852,-0.973999,-0.1915283,0,0,0,0,0,0
3.849997,0.7384164,-0.8581596,-1,-0.2562958,0,0,0,0,0,0,0,0,0,0,0,1,0,0,0,0,0,0.06420898,-1.000732,-0.1890869,0,0,0,0,0,0
3.859997,0.7384164,-0.8581596,-1,-0.2562958,0,0,0,0,0,0,0,0,0,0,0,1,0,0,0,0.001614612,0.005074495,0.04260254,-0.9884033,-0.196167,0,0,0,0,0,0
3.869997,0.7384164,-0.8581596,-1,-0.2562958,0,0,0,0,0,0,0,0,0,0,0,1,0,0,0,0,0,0.04907227,-1.002319,-0.1817627,0,0,0,0,0,0
3.879997,0.7384164,-0.8581596,-1,-0.2562958,0,0,0,0,0,0,0,0,0,0,0,1,0,0,0,0,0,0.04602051,-1.003906,-0.1798096,0,0,0,0,0,0
3.889997,0.7299091,-0.8575435,-1,-0.2562958,0,0,0,0,0,0,0,0,0,0,0,1,0,0,0,0,0,0.0435791,-0.9935303,-0.1916504,0,0,0,0,0,0
3.899997,0.7141563,-0.8737444,-1,-0.2483314,0,0,0,0,0,0,0,0,0,0,0,1,0,0,0,0,0,0.0423584,-0.9937744,-0.1894531,0,0,0,0,0,0
3.909997,0.6899853,-0.8894031,-1,-0.2403741,0,0,0,0,0,0,0,0,0,0,0,1,0,0,0,0,0,0.04650879,-0.9871826,-0.1844482,0,0,0,0,0,0
3.919997,0.6502753,-0.9215559,-1,-0.2165419,0,0,0,0,0,0,0,0,0,0,0,1,0,0,-0.009995421,-0.002498855,-0.01274416,0.05151367,-0.9940186,-0.1767578,0,0,0,0,0,0
3.929997,0.6185194,-0.9457361,-1,-0.2006854,0,0,0,0,0,0,0,0,0,0,0,1,0,0,0,0,0,0.04772949,-0.9892578,-0.177002,0,0,0,0,0,0
3.939997,0.5624949,-0.9773847,-1,-0.1690417,0,0,0,0,0,0,0,0,0,0,0,1,0,0,0,0,0,0.06555176,-0.9841309,-0.1755371,0,0,0,0,0,0
3.949997,0.5149953,-1,-1,-0.1374799,0,0,0,0,0,0,0,0,0,0,0,1,0,0,0.0002499059,-0.002998871,-0.01124577,0.06506348,-0.977417,-0.1745605,0,0,0,0,0,0
3.959997,0.4825947,-1,-1,-0.1296006,0,0,0,0,0,0,0,0,0,0,0,1,0,0,0,0,0,0.06274414,-0.982666,-0.1744385,0,0,0,0,0,0
3.969997,0.4416777,-1,-1,-0.1059862,0,0,0,0,0,0,0,0,0,0,0,1,0,0,0,0,0,0.0513916,-1.01416,-0.1729736,0,0,0,0,0,0
3.979997,0.4091095,-1,-1,-0.09812176,0,0,0,0,0,0,0,0,0,0,0,1,0,0,0,0,0,0.05358887,-1.036743,-0.171875,0,0,0,0,0,0
3.989997,0.3605264,-1,-1,-0.09026043,0,0,0,0,0,0,0,0,0,0,0,1,0,0,0,0,0,0.05297852,-1.023926,-0.177002,0,0,0,0,0,0
3.999997,0.3122526,-1,-1,-0.08240198,0,0,0,0,0,0,0,0,0,0,0,1,0,0,0,0,0,0.05065918,-1.000732,-0.1921387,0,0,0,0,0,0
4.009997,0.2642672,-1,-1,-0.06669273,0,0,0,0,0,0,0,0,0,0,0,1,0,0,-0.0177623,-0.00599766,-0.0133794,0.05297852,-0.9943848,-0.1986084,0,0,0,0,0,0
4.019997,0.2403741,-1,-1,-0.05884144,0,0,0,0,0,0,0,0,0,0,0,1,0,0,0,0,0,0.0592041,-0.9991455,-0.1983643,0,0,0,0,0,0
4.029997,0.2006854,-1,-1,-0.05099206,0,0,0,0,0,0,0,0,0,0,0,1,0,0,0,0,0,0.05993652,-0.987915,-0.2004395,0,0,0,0,0,0
4.039998,0.1848525,-1,-1,-0.04314433,0,0,0,0,0,0,0,0,0,0,0,1,0,0,0,0,0,0.05761719,-1.001831,-0.1938477,0,0,0,0,0,0
4.049998,0.1611441,-1,-1,-0.04314433,0,0,0,0,0,0,0,0,0,0,0,1,0,0,0,0,0,0.05944824,-1.047241,-0.1809082,0,0,0,0,0,0
4.059998,0.1532514,-1,-1,-0.04314433,0,0,0,0,0,0,0,0,0,0,0,1,0,0,-0.05298005,-0.004748212,-0.002998871,0.08288574,-1.033081,-0.2008057,0,0,0,0,0,0
4.069998,0.1453634,-1,-1,-0.02745281,0,0,0,0,0,0,0,0,0,0,0,1,0,0,0,0,0,0.1004639,-0.9733887,-0.2197266,0,0,0,0,0,0
4.079998,0.1453634,-1,-0.7064662,0.09986695,0,0,0,0,0,0,0,0,0,0,0,1,0,0,0,0,0,0.09106445,-0.9102783,-0.2683105,0,0,0,0,0,0
4.089999,0.1453634,-1,-0.2227101,0.1347259,0,0,0,0,0,0,0,0,0,0,0,1,0,0,0.05047688,-0.0007496566,0.02099039,0.06665039,-0.8719482,-0.2797852,0,0,0,0,0,0
4.099999,0.1611441,-1,0,0,0,0,0,0,0,0,0,0,0,0,0,1,0,0,0,0,0,-0.04040527,-0.8986816,-0.1381836,0,0,0,0,0,0
4.109999,0.1927661,-1,0,0,0,0,0,0,0,0,0,0,0,0,0,1,0,0,0,0,0,0.102417,-0.9943848,-0.2150879,0,0,0,0,0,0
4.119999,0.2403741,-1,0,0,0,0,0,0,0,0,0,0,0,0,0,0,0,0,0.06505154,-0.007843095,0.04059955,0.0480957,-1.005127,-0.1854248,0,0,0,0,0,0
4.13,0.2722459,-1,0,0,0,0,0,0,0,0,0,0,0,0,0,0,0,0,0,0,0,0.05419922,-0.9841309,-0.1368408,0,0,0,0,0,0
4.14,0.3122526,-1,0,0,0,0,0,0,0,0,0,0,0,0,0,0,0,0,0,0,0,0.03063965,-1.030762,-0.1120605,0,0,0,0,0,0
4.15,0.3283107,-1,0,0,0,0,0,0,0,0,0,0,0,0,0,0,0,0,-0.004844264,-0.004152226,0.00599766,-0.002929688,-0.9984131,-0.1169434,0,0,0,0,0,0
4.16,0.3283107,-1,0,0,0,0,0,0,0,0,0,0,0,0,0,0,0,0,0,0,0,0.003173828,-0.9632568,-0.08911133,0,0,0,0,0,0
4.170001,0.3283107,-1,0,0,0,0,0,0,0,0,0,0,0,0,0,0,0,0,0,0,0,0.04980469,-0.980835,-0.1799316,0,0,0,0,0,0
4.180001,0.3283107,-1,0,0,0,0,0,0,0,0,0,0,0,0,0,0,0,0,-0.006497554,-0.003998494,-0.0294889,0.03735352,-0.9663086,-0.2318115,0,0,0,0,0,0
4.190001,0.3122526,-1,0,0,0,0,0,0,0,0,0,0,0,0,0,0,0,0,0,0,0,0.0513916,-0.9605713,-0.208374,0,0,0,0,0,0
4.200001,0.2802319,-1,-0.06833278,-0.003867893,0,0,0,0,0,0,0,0,0,0,0,0,0,0,0,0,0,0.0604248,-0.9584961,-0.1424561,0,0,0,0,0,0
4.210001,0.2403741,-1,-0.4668014,-0.07052395,0,0,0,0,0,0,0,0,0,0,0,0,0,0,0.02673993,-0.008246895,-0.02249153,0.06933594,-0.9846191,-0.1343994,0,0,0,0,0,0
4.220002,0.2086106,-1,-0.8015754,-0.1861479,0,0,0,0,0,0,0,0,0,0,0,0,0,0,0,0,0,0.07849121,-1.041992,-0.1188965,0,0,0,0,0,0
4.230002,0.1611441,-1,-1,-0.3042357,0,0,0,0,0,0,0,0,0,0,0,0,0,0,-0.01399473,0.0181085,0.0002115341,0.1260986,-1.181885,-0.112915,0,0,0,0,0,0
4.240002,0.1374799,-1,-1,-0.2882255,0,0,0,0,0,0,0,0,0,0,0,0,0,0,0,0,0,0.03808594,-1.106201,-0.1668701,0,0,0,0,0,0
4.250002,0.09812176,-1,-1,-0.2802319,0,0,0,0,0,0,0,0,0,0,0,1,0,0,-0.06047231,0.01399359,0.01524302,0.05175781,-1.041016,-0.1387939,0,0,0,0,0,0
4.260003,0.07454614,-1,-1,-0.2722459,0,0,0,0,0,0,0,0,0,0,0,1,0,0,0,0,0,0.02697754,-0.9904785,-0.2058105,0,0,0,0,0,0
4.270003,0.02745281,-1,-1,-0.2642672,0,0,0,0,0,0,0,0,0,0,0,1,0,0,0,0,0,0.04797363,-0.9481201,-0.2409668,0,0,0,0,0,0
4.280003,-0.01176485,-1,-1,-0.2562958,0,0,0,0,0,0,0,0,0,0,0,1,0,0,-0.03645696,-0.007383689,-0.01938218,0.02734375,-0.9615479,-0.1828613,0,0,0,0,0,0
4.290003,-0.035298,-1,-1,-0.2483314,0,0,0,0,0,0,0,0,0,0,0,1,0,0,0,0,0,0.001953125,-0.9802246,-0.1824951,0,0,0,0,0,0
4.300004,-0.07454614,-1,-1,-0.2324234,0,0,0,0,0,0,0,0,0,0,0,1,0,0,0,0,0,0.08325195,-0.960083,-0.2492676,0,0,0,0,0,0
4.310004,-0.1059862,-1,-1,-0.2244794,0,0,0,0,0,0,0,0,0,0,0,1,0,0,0.01014899,-0.007842403,-0.003459883,0.0625,-0.9658203,-0.2119141,0,0,0,0,0,0
4.320004,-0.1217254,-1,-1,-0.2244794,0,0,0,0,0,0,0,0,0,0,0,1,0,0,0,0,0,0.07067871,-0.9779053,-0.197998,0,0,0,0,0,0
4.330004,-0.1453634,-1,-1,-0.2165419,0,0,0,0,0,0,0,0,0,0,0,1,0,0,0,0,0,0.07189941,-0.9842529,-0.1925049,0,0,0,0,0,0
4.340004,-0.1611441,-1,-1,-0.2165419,0,0,0,0,0,0,0,0,0,0,0,1,0,0,0.009746331,0,0.006997366,0.06811523,-0.9749756,-0.2095947,0,0,0,0,0,0
4.350005,-0.1611441,-1,-1,-0.2244794,0,0,0,0,0,0,0,0,0,0,0,1,0,0,0,0,0,0.05615234,-0.9835205,-0.2193604,0,0,0,0,0,0
4.360005,-0.1611441,-1,-1,-0.2722459,0,0,0,0,0,0,0,0,0,0,0,1,0,0,0,0,0,0.08081055,-0.9603271,-0.2298584,0,0,0,0,0,0
4.370005,-0.1374799,-1,-1,-0.3605264,0,0,0,0,0,0,0,0,0,0,0,1,0,0,0.02499059,0.0124953,0.02149191,0.07446289,-0.9705811,-0.1875,0,0,0,0,0,0
4.380005,-0.1059862,-1,-0.9947569,-0.408207,0,0,0,0,0,0,0,0,0,0,0,1,0,0,0,0,0,0.08239746,-0.9918213,-0.2003174,0,0,0,0,0,0
4.390006,-0.04314433,-1,-0.8714208,-0.441572,0,0,0,0,0,0,0,0,0,0,0,1,0,0,0,0,0,0.08276367,-1.007324,-0.1916504,0,0,0,0,0,0
4.400006,0.03488186,-0.9263072,-0.7065634,-0.4697692,0,0,0,0,0,0,0,0,0,0,0,1,0,0,0.01399359,0.02848695,0.04023157,0.09362793,-1.01416,-0.1647949,0,0,0,0,0,0
4.410006,0.07088593,-0.7424368,-0.5531238,-0.4714545,0,0,0,0,0,0,0,0,0,0,0,1,0,0,0,0,0,0.08337402,-0.9925537,-0.1939697,0,0,0,0,0,0
4.420006,0.07262503,-0.3757556,-0.3612571,-0.490022,0,0,0,0,0,0,0,0,0,0,0,1,0,0,0,0,0,0.06018066,-0.9969482,-0.1505127,0,0,0,0,0,0
4.430007,0,0,-0.2064714,-0.5144289,0,0,0,0,0,0,0,0,0,0,0,1,0,0,-0.003230079,0.03991455,0.04683614,0.05053711,-1.031494,-0.1381836,0,0,0,0,0,0
4.440007,0,0,-0.1311786,-0.5708039,0,0,0,0,0,0,0,0,0,0,0,1,0,0,0,0,0,0.04553223,-0.9805908,-0.2436523,0,0,0,0,0,0
4.450007,0,0,-0.03303907,-0.6864786,0,0,0,0,0,0,0,0,0,0,0,1,0,0,0,0,0,-0.001708984,-1.009033,-0.1798096,0,0,0,0,0,0
4.460007,0,0,0.03362874,-0.7510417,0,0,0,0,0,0,0,0,0,0,0,1,0,0,0,0,0,0.005859375,-1.033203,-0.15271,0,0,0,0,0,0
4.470007,-0.009642811,0.05249975,0.1027783,-0.8260332,0,0,0,0,0,0,0,0,0,0,0,1,0,0,0,0,0,0.003417969,-1.03894,-0.137207,0,0,0,0,0,0
4.480008,-0.1163632,0.3013508,0.1660905,-0.8922536,0,0,0,0,0,0,0,0,0,0,0,1,0,0,0,0,0,0.02246094,-1.003174,-0.1802979,0,0,0,0,0,0
4.490008,-0.2490887,0.5016857,0.2305659,-0.9496191,0,0,0,0,0,0,0,0,0,0,0,1,0,0,-0.02024238,0.01574407,0.01149567,0.01098633,-0.9995117,-0.1833496,0,0,0,0,0,0
4.500008,-0.3166762,0.5787531,0.2715626,-0.9878579,0,0,0,0,0,0,0,0,0,0,0,1,0,0,0,0,0,0.01757813,-1.007935,-0.1730957,0,0,0,0,0,0
4.510008,-0.3651389,0.6011883,0.336352,-1,0,0,0,0,0,0,0,0,0,0,0,1,0,0,0,0,0,0.004150391,-1.037109,-0.1500244,0,0,0,0,0,0
4.520009,-0.4611773,0.6111537,0.4009901,-1,0,0,0,0,0,0,0,0,0,0,0,1,0,0,-0.05797817,0.002998871,-0.007497177,0.01916504,-0.9931641,-0.1854248,0,0,0,0,0,0
4.530009,-0.5608114,0.6294822,0.4416777,-1,0,0,0,0,0,0,0,0,0,0,0,1,0,0,0,0,0,0.03173828,-0.9847412,-0.1856689,0,0,0,0,0,0
4.540009,-0.7742698,0.6563607,0.4908059,-1,0,0,0,0,0,0,0,0,0,0,0,1,0,0,0,0,0,0.0489502,-0.989502,-0.1799316,0,0,0,0,0,0
4.550009,-0.9303717,0.6508609,0.5387272,-0.9936524,0,0,0,0,0,0,0,0,0,0,0,1,0,0,-0.03298758,0.002998871,0.003498683,0.08398438,-0.9819336,-0.178833,0,0,0,0,0,0
4.560009,-0.9784681,0.5790934,0.5707892,-0.9779255,0,0,0,0,0,0,0,0,0,0,0,1,0,0,0,0,0,0.03723145,-0.993042,-0.1937256,0,0,0,0,0,0
4.57001,-1,0.4662001,0.6112997,-0.9628969,0,0,0,0,0,0,0,0,0,0,0,1,0,0,0,0,0,0.03930664,-0.9953613,-0.2028809,0,0,0,0,0,0
4.58001,-1,0.3686016,0.6430523,-0.9386168,0,0,0,0,0,0,0,0,0,0,0,1,0,0,-0.04913468,-0.002768151,-0.004844264,0.03039551,-0.9941406,-0.2005615,0,0,0,0,0,0
4.59001,-1,0.3444016,0.6833416,-0.9151183,0,0,0,0,0,0,0,0,0,0,0,1,0,0,0,0,0,0.02575684,-0.9852295,-0.2207031,0,0,0,0,0,0
4.60001,-1,0.3283107,0.7311347,-0.8749644,0,0,0,0,0,0,0,0,0,0,0,1,0,0,0,0,0,0.02307129,-0.973877,-0.2384033,0,0,0,0,0,0
4.610011,-1,0.3283107,0.7866051,-0.8185484,0,0,0,0,0,0,0,0,0,0,0,1,0,0,-0.03252577,-0.01453279,-0.0177623,0.05847168,-0.9626465,-0.2203369,0,0,0,0,0,0
4.620011,-1,0.2962267,0.8345971,-0.7707045,0,0,0,0,0,0,0,0,0,0,0,1,0,0,0,0,0,0.03259277,-0.9519043,-0.2220459,0,0,0,0,0,0
4.630011,-1,0.2562958,0.8969611,-0.6737174,0,0,0,0,0,0,0,0,0,0,0,1,0,0,0,0,0,0.01025391,-0.9476318,-0.2244873,0,0,0,0,0,0
4.640011,-1,0.2165419,0.9595633,-0.5614042,0,0,0,0,0,0,0,0,0,0,0,1,0,0,-0.01724351,-0.02349116,-0.03748589,0.03027344,-0.9558105,-0.2197266,0,0,0,0,0,0
4.650012,-1,0.2006854,0.9900665,-0.4811167,0,0,0,0,0,0,0,0,0,0,0,1,0,0,0,0,0,0.03881836,-0.9622803,-0.2268066,0,0,0,0,0,0
4.660012,-1,0.1690417,1,-0.3928797,0,0,0,0,0,0,0,0,0,0,0,1,0,0,0,0,0,0.06237793,-0.9852295,-0.2032471,0,0,0,0,0,0
4.670012,-1,0.1296006,1,-0.2962267,0,0,0,0,0,0,0,0,0,0,0,1,0,0,0,0,0,0.08007813,-0.9819336,-0.2114258,0,0,0,0,0,0
4.680012,-1,0.09812176,1,-0.2483314,0,0,0,0,0,0,0,0,0,0,0,1,0,0,0,0,0,0.07080078,-0.9898682,-0.2041016,0,0,0,0,0,0
4.690012,-1,0.04314433,1,-0.1769445,0,0,0,0,0,0,0,0,0,0,0,1,0,0,0,0,0,0.07788086,-0.9885254,-0.2032471,0,0,0,0,0,0
4.700013,-1,-0.003921574,1,-0.09026043,0,0,0,0,0,0,0,0,0,0,0,1,0,0,0,0,0,0.06738281,-0.9892578,-0.1951904,0,0,0,0,0,0
4.710013,-1,-0.035298,1,0.01960851,0,0,0,0,0,0,0,0,0,0,0,1,0,0,0.05885958,-0.01103378,0.001941465,0.05993652,-0.9970703,-0.1962891,0,0,0,0,0,0
4.720013,-1,-0.05884144,1,0.09812176,0,0,0,0,0,0,0,0,0,0,0,1,0,0,0,0,0,0.05908203,-1.007324,-0.1937256,0,0,0,0,0,0
4.730013,-1,-0.07454614,1,0.2006854,0,0,0,0,0,0,0,0,0,0,0,1,0,0,0.02648787,-0.002998627,0.0004997711,0.05273438,-1.002808,-0.1981201,0,0,0,0,0,0
4.740014,-1,-0.08240198,1,0.2562958,0,0,0,0,0,0,0,0,0,0,0,1,0,0,0,0,0,0.05310059,-1.026123,-0.1870117,0,0,0,0,0,0
4.750014,-1,-0.08240198,1,0.336352,0,0,0,0,0,0,0,0,0,0,0,1,0,0,0,0,0,0.04626465,-0.9967041,-0.1912842,0,0,0,0,0,0
4.760014,-1,-0.09026043,1,0.4009901,0,0,0,0,0,0,0,0,0,0,0,1,0,0,0,0,0,0.046875,-1.007568,-0.1849365,0,0,0,0,0,0
4.770014,-1,-0.09026043,1,0.4253754,0,0,0,0,0,0,0,0,0,0,0,1,0,0,0,0,0,0.04504395,-0.9989014,-0.1866455,0,0,0,0,0,0
4.780015,-1,-0.09812176,1,0.4575411,0,0,0,0,0,0,0,0,0,0,0,1,0,0,0,0,0,0.04846191,-0.9802246,-0.1905518,0,0,0,0,0,0
4.790015,-1,-0.09812176,1,0.4898192,0,0,0,0,0,0,0,0,0,0,0,1,0,0,0,0,0,0.05175781,-0.9820557,-0.1959229,0,0,0,0,0,0
4.800015,-1,-0.09812176,0.9910758,0.497528,0,0,0,0,0,0,0,0,0,0,0,1,0,0,0,0,0,0.04919434,-0.9807129,-0.1933594,0,0,0,0,0,0
4.810015,-1,-0.1059862,0.9836607,0.5216986,0,0,0,0,0,0,0,0,0,0,0,1,0,0,0,0,0,0.04650879,-0.99646,-0.1903076,0,0,0,0,0,0
4.820015,-1,-0.113854,0.976846,0.5542106,0,0,0,0,0,0,0,0,0,0,0,1,0,0,0.01149567,-0.003998494,-0.001499435,0.04833984,-0.9981689,-0.1862793,0,0,0,0,0,0
4.830016,-1,-0.1296006,0.9601151,0.5696949,0,0,0,0,0,0,0,0,0,0,0,1,0,0,0,0,0,0.04821777,-0.99646,-0.1915283,0,0,0,0,0,0
4.840016,-1,-0.1611441,0.9451655,0.6101702,0,0,0,0,0,0,0,0,0,0,0,1,0,0,0,0,0,0.04309082,-0.9991455,-0.1942139,0,0,0,0,0,0
4.850016,-1,-0.1927661,0.9127472,0.6496847,0,0,0,0,0,0,0,0,0,0,0,1,0,0,0.003498398,-0.00674691,-0.009245765,0.04602051,-1.001099,-0.1973877,0,0,0,0,0,0
4.860016,-1,-0.2086106,0.8975631,0.682148,0,0,0,0,0,0,0,0,0,0,0,1,0,0,0,0,0,0.04797363,-0.9974365,-0.1967773,0,0,0,0,0,0
4.870017,-1,-0.2403741,0.8743551,0.7226405,0,0,0,0,0,0,0,0,0,0,0,1,0,0,0,0,0,0.04577637,-1.000122,-0.1966553,0,0,0,0,0,0
4.880017,-1,-0.2802319,0.8513149,0.7633857,0,0,0,0,0,0,0,0,0,0,0,1,0,0,0.002498855,-0.009495651,-0.01524302,0.04675293,-0.9931641,-0.196167,0,0,0,0,0,0
4.890017,-1,-0.3122526,0.8345971,0.7707045,0,0,0,0,0,0,0,0,0,0,0,1,0,0,0,0,0,0.05297852,-0.9949951,-0.1933594,0,0,0,0,0,0
4.900017,-1,-0.3686016,0.8191673,0.7951917,0,0,0,0,0,0,0,0,0,0,0,1,0,0,0,0,0,0.06201172,-0.9887695,-0.1993408,0,0,0,0,0,0
4.910017,-0.9943026,-0.4000978,0.8031714,0.8111632,0,0,0,0,0,0,0,0,0,0,0,1,0,0,0.01130328,-0.012226,-0.009919208,0.06713867,-0.9818115,-0.2043457,0,0,0,0,0,0
4.920018,-0.9866543,-0.423984,0.8031714,0.8111632,0,0,0,0,0,0,0,0,0,0,0,1,0,0,0,0,0,0.07507324,-0.9753418,-0.2208252,0,0,0,0,0,0
4.930018,-0.9795809,-0.4560802,0.7951917,0.8191673,0,0,0,0,0,0,0,0,0,0,0,1,0,0,0,0,0,0.08654785,-0.9768066,-0.2304688,0,0,0,0,0,0
4.940018,-0.9552274,-0.4954499,0.7951917,0.8191673,0,0,0,0,0,0,0,0,0,0,0,1,0,0,0.05223033,-0.01974257,0.004248401,0.09375,-1.006958,-0.2491455,0,0,0,0,0,0
4.950018,-0.9484507,-0.527799,0.7951917,0.8191673,0,0,0,0,0,0,0,0,0,0,0,1,0,0,0,0,0,0.08288574,-1.026367,-0.2712402,0,0,0,0,0,0
4.960019,-0.9162793,-0.5751536,0.7951917,0.8191673,0,0,0,0,0,0,0,0,0,0,0,1,0,0,0,0,0,0.1268311,-1.039917,-0.1813965,0,0,0,0,0,0
4.970019,-0.893341,-0.6233535,0.6918254,0.6918254,0,0,0,0,0,0,0,0,0,0,0,0,0,0,0,0,0,0.03295898,-0.9744873,-0.1772461,0,0,0,0,0,0
4.980019,-0.8688172,-0.646654,0.5332054,0.5182906,0,0,0,0,0,0,0,0,0,0,0,0,0,0,0,0,0,0.0189209,-1.047241,-0.07763672,0,0,0,0,0,0
4.990019,-0.8295782,-0.7025614,0.3015705,0.2885997,0,0,0,0,0,0,0,0,0,0,0,0,0,0,0,0,0,-0.02404785,-0.980957,-0.03820801,0,0,0,0,0,0
5.00002,-0.7821831,-0.7583603,0.06435483,0.07425557,0,0,0,0,0,0,0,0,0,0,0,0,0,0,0,0,0,0.03991699,-1.028564,-0.1862793,0,0,0,0,0,0
5.01002,-0.7504452,-0.7901513,0,0,0,0,0,0,0,0,0,0,0,0,0,0,0,0,0,0,0,0.0378418,-0.9884033,-0.1424561,0,0,0,0,0,0
5.02002,-0.6947249,-0.8376398,0,0,0,0,0,0,0,0,0,0,0,0,0,0,0,0,0,0,0,0.01464844,-0.9367676,-0.1352539,0,0,0,0,0,0
5.03002,-0.6311145,-0.885148,0,0,0,0,0,0,0,0,0,0,0,0,0,0,0,0,0,0,0,0.06445313,-0.9530029,-0.1977539,0,0,0,0,0,0
5.04002,-0.5757334,-0.925144,0,0,0,0,0,0,0,0,0,0,0,0,0,0,0,0,0,0,0,0.05151367,-0.9674072,-0.1257324,0,0,0,0,0,0
5.050021,-0.4729256,-0.9895671,0,0,0,0,0,0,0,0,0,0,0,0,0,0,0,0,0,0,0,-0.004516602,-1.091187,-0.05102539,0,0,0,0,0,0
5.060021,-0.336352,-1,0,0,0,0,0,0,0,0,0,0,0,0,0,1,0,0,0,0,0,0.03869629,-1.035034,-0.08410645,0,0,0,0,0,0
5.070021,-0.2483314,-1,0,0,0,0,0,0,0,0,0,0,0,0,0,1,0,0,0,0,0,0.01989746,-0.9812012,-0.1623535,0,0,0,0,0,0
5.080021,-0.1217254,-1,0,0,0,0,0,0,0,0,0,0,0,0,0,1,0,0,0,0,0,0.08288574,-0.9644775,-0.296875,0,0,0,0,0,0
5.090022,0.01176485,-1,0,0,0,0,0,0,0,0,0,0,0,0,0,1,0,0,-0.04023485,0.002998871,-0.0252405,0.07617188,-0.9614258,-0.2609863,0,0,0,0,0,0
5.100022,0.09026043,-1,0,0,0,0,0,0,0,0,0,0,0,0,0,1,0,0,0,0,0,0.1239014,-0.9597168,-0.3000488,0,0,0,0,0,0
5.110022,0.2165419,-1,-0.02288029,0.04277619,0,0,0,0,0,0,0,0,0,0,0,1,0,0,0,0,0,0.1151123,-0.9285889,-0.3270264,0,0,0,0,0,0
5.120022,0.336352,-1,-0.03246737,0.06103866,0,0,0,0,0,0,0,0,0,0,0,1,0,0,0,0,0,0.09936523,-0.9389648,-0.2397461,0,0,0,0,0,0
5.130023,0.4009901,-1,-0.0351396,0.06887362,0,0,0,0,0,0,0,0,0,0,0,1,0,0,0,0,0,0.08557129,-0.9477539,-0.1917725,0,0,0,0,0,0
5.140023,0.4580168,-1,-0.0351396,0.06887362,0,0,0,0,0,0,0,0,0,0,0,1,0,0,0,0,0,0.06481934,-0.9678955,-0.1898193,0,0,0,0,0,0
5.150023,0.5072563,-1,-0.03766545,0.07683752,0,0,0,0,0,0,0,0,0,0,0,1,0,0,0,0,0,0.06323242,-1.006226,-0.2005615,0,0,0,0,0,0
5.160023,0.540269,-1,-0.03586131,0.08263692,0,0,0,0,0,0,0,0,0,0,0,1,0,0,0,0,0,0.04968262,-1.009888,-0.1942139,0,0,0,0,0,0
5.170023,0.5968135,-0.9973595,-0.02277167,0.08349611,0,0,0,0,0,0,0,0,0,0,0,1,0,0,0,0,0,0.04150391,-0.9862061,-0.2006836,0,0,0,0,0,0
5.180024,0.6369415,-0.9734389,-0.01576469,0.1068496,0,0,0,0,0,0,0,0,0,0,0,1,0,0,0.04123447,0.001249529,0.01474445,0.06005859,-0.9741211,-0.2263184,0,0,0,0,0,0
5.190024,0.6766679,-0.9409287,-0.00544698,0.1143866,0,0,0,0,0,0,0,0,0,0,0,1,0,0,0,0,0,0.0793457,-0.9820557,-0.237915,0,0,0,0,0,0
5.200024,0.7554604,-0.8593862,0.009935125,0.1331307,0,0,0,0,0,0,0,0,0,0,0,1,0,0,0.09194173,-0.007708243,0.0414054,0.08776855,-1.019287,-0.2617188,0,0,0,0,0,0
5.210024,0.7951917,-0.8191673,0.01731901,0.1250818,0,0,0,0,0,0,0,0,0,0,0,1,0,0,0.06797441,-0.004998118,0.02923899,0.05358887,-0.9515381,-0.2563477,0,0,0,0,0,0
5.220025,0.8025521,-0.8025521,0.009642811,0.05249975,0,0,0,0,0,0,0,0,0,0,0,1,0,0,0,0,0,0.112793,-0.9898682,-0.2351074,0,0,0,0,0,0
5.230025,0.810544,-0.7945727,0,0,0,0,0,0,0,0,0,0,0,0,0,1,0,0,0,0,0,0.1356201,-1.019409,-0.137085,0,0,0,0,0,0
5.240025,0.8099219,-0.7859832,0,0,0,0,0,0,0,0,0,0,0,0,0,0,0,0,0.1004622,-0.002249153,0.03023862,0.01904297,-0.9958496,-0.128418,0,0,0,0,0,0
5.250025,0.8179268,-0.778028,0,0,0,0,0,0,0,0,0,0,0,0,0,0,0,0,0,0,0,0.04296875,-1.084473,-0.1719971,0,0,0,0,0,0
5.260026,0.8414034,-0.7456988,0,0,0,0,0,0,0,0,0,0,0,0,0,0,0,0,0,0,0,-0.0144043,-0.9644775,-0.06018066,0,0,0,0,0,0
5.270026,0.8631671,-0.6881471,0,0,0,0,0,0,0,0,0,0,0,0,0,0,0,0,0.03448421,0.0154929,0.01949107,0.003417969,-1.007568,-0.09082031,0,0,0,0,0,0
5.280026,0.8845389,-0.6227472,0,0,0,0,0,0,0,0,0,0,0,0,0,0,0,0,0,0,0,0.01245117,-0.9919434,-0.04516602,0,0,0,0,0,0
5.290026,0.9172666,-0.4606017,0,0,0,0,0,0,0,0,0,0,0,0,0,0,0,0,0,0,0,0.04296875,-1.014038,-0.1156006,0,0,0,0,0,0
5.300026,0.9363845,-0.3330238,0,0,0,0,0,0,0,0,0,0,0,0,0,0,0,0,0,0,0,0.06872559,-1.024292,-0.1278076,0,0,0,0,0,0
5.310027,0.9917692,-0.105841,0,0,0,0,0,0,0,0,0,0,0,0,0,1,0,0,0,0,0,0.05041504,-1.012573,-0.1046143,0,0,0,0,0,0
5.320027,1,0.1374799,0,0,0,0,0,0,0,0,0,0,0,0,0,1,0,0,0,0,0,0.02880859,-0.9825439,-0.1514893,0,0,0,0,0,0
5.330027,1,0.3122526,0,0,0,0,0,0,0,0,0,0,0,0,0,1,0,0,0,0,0,0.01782227,-0.9550781,-0.2019043,0,0,0,0,0,0
5.340027,0.9936524,0.5387272,-0.01654189,0.02448199,0,0,0,0,0,0,0,0,0,0,0,1,0,0,0,0,0,-0.002807617,-0.8999023,-0.2747803,0,0,0,0,0,0
5.350028,0.922732,0.6670833,-0.05890491,0.08246687,0,0,0,0,0,0,0,0,0,0,0,1,0,0,0.1287015,0.003998494,-0.001249529,0.06970215,-0.9143066,-0.3310547,0,0,0,0,0,0
5.360028,0.8749644,0.7311347,-0.07273372,0.09511333,0,0,0,0,0,0,0,0,0,0,0,1,0,0,0,0,0,0.06201172,-0.9449463,-0.2928467,0,0,0,0,0,0
5.370028,0.8044004,0.8284124,-0.1068849,0.1341747,0,0,0,0,0,0,0,0,0,0,0,1,0,0,0,0,0,0.05664063,-0.9906006,-0.2120361,0,0,0,0,0,0
5.380028,0.7002302,0.9163012,-0.1555771,0.1766723,0,0,0,0,0,0,0,0,0,0,0,1,0,0,0.1396974,-0.03923523,-0.02499059,0.05200195,-0.972168,-0.154541,0,0,0,0,0,0
5.390028,0.6202084,0.9723267,-0.1879961,0.1992198,0,0,0,0,0,0,0,0,0,0,0,1,0,0,0,0,0,0.06213379,-0.9423828,-0.1584473,0,0,0,0,0,0
5.400029,0.4825947,1,-0.2348669,0.2170289,0,0,0,0,0,0,0,0,0,0,0,1,0,0,0,0,0,0.09619141,-1.017578,-0.1364746,0,0,0,0,0,0
5.410029,0.3524597,1,-0.3065183,0.2306788,0,0,0,0,0,0,0,0,0,0,0,0,0,0,0,0,0,0.07995605,-1.037231,-0.0489502,0,0,0,0,0,0
5.420029,0.2086106,1,-0.3815771,0.2422185,0,0,0,0,0,0,0,0,0,0,0,0,0,0,0.1416851,0.001499313,0.01399359,0.0423584,-1.093506,0.007568359,0,0,0,0,0,0
5.430029,0.113854,1,-0.432932,0.2488507,0,0,0,0,0,0,0,0,0,0,0,0,0,0,0,0,0,0.06408691,-1.199463,-0.07641602,0,0,0,0,0,0
5.44003,-0.01176485,1,-0.5113514,0.257439,0,0,0,0,0,0,0,0,0,0,0,0,0,0,0,0,0,0.001953125,-1.092896,0.0300293,0,0,0,0,0,0
5.45003,-0.1374799,1,-0.5998641,0.2653944,0,0,0,0,0,0,0,0,0,0,0,0,0,0,-0.04751992,0.02006909,-0.02029977,0.01599121,-1.102295,-0.02966309,0,0,0,0,0,0
5.46003,-0.2165419,1,-0.6541234,0.2771709,0,0,0,0,0,0,0,0,0,0,0,0,0,0,0,0,0,0.02929688,-1.07605,-0.1064453,0,0,0,0,0,0
5.47003,-0.3042357,1,-0.727706,0.3054103,0,0,0,0,0,0,0,0,0,0,0,0,0,0,0,0,0,0.03051758,-0.9841309,-0.1298828,0,0,0,0,0,0
5.480031,-0.3605264,1,-0.7749429,0.3397533,0,0,0,0,0,0,0,0,0,0,0,0,0,0,-0.03413751,0.001383953,-0.02283523,0.0255127,-0.9715576,-0.1142578,0,0,0,0,0,0
5.490031,-0.3847782,1,-0.8030155,0.3573227,0,0,0,0,0,0,0,0,0,0,0,0,0,0,0,0,0,0.04443359,-0.9804688,-0.1021729,0,0,0,0,0,0
5.500031,-0.4091095,1,-0.8244156,0.406402,0,0,0,0,0,0,0,0,0,0,0,0,0,0,0,0,0,0.07226563,-0.982666,-0.08337402,0,0,0,0,0,0
5.510031,-0.4172379,1,-0.8268077,0.4386351,0,0,0,0,0,0,0,0,0,0,0,0,0,0,-0.01024614,-0.004998118,-0.008246895,0.08618164,-1.040283,0.008544922,0,0,0,0,0,0
5.520031,-0.4172379,1,-0.8292584,0.4710811,0,0,0,0,0,0,0,0,0,0,0,0,0,0,0,0,0,0.02868652,-1.109131,0.04394531,0,0,0,0,0,0
5.530032,-0.4009901,1,-0.8342783,0.5366015,0,0,0,0,0,0,0,0,0,0,0,0,0,0,0,0,0,0.04492188,-1.06665,-0.04394531,0,0,0,0,0,0
5.540032,-0.3512155,0.9826142,-0.8380967,0.5862742,0,0,0,0,0,0,0,0,0,0,0,1,0,0,0,0,0,0.04675293,-1.077026,-0.05761719,0,0,0,0,0,0
5.550032,-0.2422787,0.8498982,-0.8431901,0.6531755,0,0,0,0,0,0,0,0,0,0,0,1,0,0,0,0,0,0.0390625,-0.9996338,-0.1278076,0,0,0,0,0,0
5.560032,-0.1357314,0.6713201,-0.853813,0.6790792,0,0,0,0,0,0,0,0,0,0,0,1,0,0,0,0,0,0.07055664,-1.006226,-0.1850586,0,0,0,0,0,0
5.570033,-0.0435442,0.465588,-0.853813,0.6790792,0,0,0,0,0,0,0,0,0,0,0,1,0,0,-0.06897403,0.004498306,-0.01399473,-0.003295898,-1.000732,-0.1520996,0,0,0,0,0,0
5.580033,0.01398369,0.2712836,-0.8625466,0.6797026,0,0,0,0,0,0,0,0,0,0,0,1,0,0,0,0,0,0.04931641,-1.004639,-0.1630859,0,0,0,0,0,0
5.590033,0,0,-0.8625466,0.6797026,0,0,0,0,0,0,0,0,0,0,0,1,0,0,0,0,0,0.07336426,-0.9705811,-0.2316895,0,0,0,0,0,0
5.600033,0,0,-0.8625466,0.6797026,0,0,0,0,0,0,0,0,0,0,0,1,0,0,-0.053753,-0.04060313,-0.03022165,0.1004639,-1.02356,-0.1574707,0,0,0,0,0,0
5.610034,0,0,-0.8625466,0.6797026,0,0,0,0,0,0,0,0,0,0,0,1,0,0,0,0,0,0.1013184,-1.0177,-0.1242676,0,0,0,0,0,0
5.620034,0,0,-0.8625466,0.6797026,0,0,0,0,0,0,0,0,0,0,0,1,0,0,0,0,0,0.07629395,-0.9542236,-0.1616211,0,0,0,0,0,0
5.630034,0.0113294,-0.1699411,-0.8625466,0.6797026,0,0,0,0,0,0,0,0,0,0,0,1,0,0,-0.03206441,-0.01245668,-0.02145317,0.03088379,-0.9362793,-0.2131348,0,0,0,0,0,0
5.640034,0.03503053,-0.3917049,-0.8625466,0.6797026,0,0,0,0,0,0,0,0,0,0,0,1,0,0,0,0,0,0.0604248,-0.9401855,-0.2110596,0,0,0,0,0,0
5.650034,0.08662512,-0.7796261,-0.8581793,0.6208947,0,0,0,0,0,0,0,0,0,0,0,1,0,0,0,0,0,0.07348633,-0.9293213,-0.2122803,0,0,0,0,0,0
5.660035,0.1374799,-1,-0.8519332,0.5378564,0,0,0,0,0,0,0,0,0,0,0,0,0,0,0.05897779,-0.02923899,-0.01999247,0.06347656,-0.9865723,-0.1140137,0,0,0,0,0,0
5.670035,0.1374799,-1,-0.8482385,0.4886166,0,0,0,0,0,0,0,0,0,0,0,0,0,0,0,0,0,0.06555176,-1.070435,-0.04052734,0,0,0,0,0,0
5.680035,0.1217254,-1,-0.8470246,0.472304,0,0,0,0,0,0,0,0,0,0,0,0,0,0,0,0,0,0.03088379,-1.002319,-0.1092529,0,0,0,0,0,0
5.690035,0.113854,-1,-0.8470246,0.472304,0,0,0,0,0,0,0,0,0,0,0,0,0,0,-0.05522471,-0.004747826,-0.0154929,0.0480957,-0.9440918,-0.09521484,0,0,0,0,0,0
5.700036,0.1059862,-1,-0.8464218,0.4641668,0,0,0,0,0,0,0,0,0,0,0,0,0,0,0,0,0,0.07385254,-1.012207,-0.2093506,0,0,0,0,0,0
5.710036,0.1059862,-1,-0.8464218,0.4641668,0,0,0,0,0,0,0,0,0,0,0,0,0,0,-0.02299134,-0.0169936,-0.01349492,0.05688477,-0.9759521,-0.1710205,0,0,0,0,0,0
5.720036,0.1059862,-1,-0.8464218,0.4641668,0,0,0,0,0,0,0,0,0,0,0,0,0,0,0,0,0,0.05981445,-0.9810791,-0.1520996,0,0,0,0,0,0
5.730036,0.09812176,-1,-0.8464218,0.4641668,0,0,0,0,0,0,0,0,0,0,0,0,0,0,0,0,0,0.09143066,-1.006348,-0.1203613,0,0,0,0,0,0
5.740036,0.09026043,-1,-0.8464218,0.4641668,0,0,0,0,0,0,0,0,0,0,0,0,0,0,-0.001999084,0.001249428,0.009245765,0.06640625,-1.035889,-0.06506348,0,0,0,0,0,0
5.750037,0.06669273,-1,-0.8470246,0.472304,0,0,0,0,0,0,0,0,0,0,0,0,0,0,0,0,0,0.0402832,-1.104248,-0.06506348,0,0,0,0,0,0
5.760037,0.04314433,-1,-0.842475,0.5289959,0,0,0,0,0,0,0,0,0,0,0,0,0,0,0,0,0,0.06188965,-1.088989,-0.07324219,0,0,0,0,0,0
5.770037,0.01176485,-1,-0.8500402,0.6286343,0,0,0,0,0,0,0,0,0,0,0,1,0,0,-0.1037109,0.02199172,0.007247271,0.04187012,-1.006592,-0.1031494,0,0,0,0,0,0
5.780037,0,-1,-0.855685,0.7044476,0,0,0,0,0,0,0,0,0,0,0,1,0,0,0,0,0,0.0793457,-0.9443359,-0.1989746,0,0,0,0,0,0
5.790038,-0.04314433,-1,-0.8569256,0.7214118,0,0,0,0,0,0,0,0,0,0,0,1,0,0,0,0,0,0.09924316,-0.9360352,-0.255127,0,0,0,0,0,0
5.800038,-0.09812176,-1,-0.8569256,0.7214118,0,0,0,0,0,0,0,0,0,0,0,1,0,0,-0.0133794,0.0004613585,-0.003460189,0.01794434,-0.9488525,-0.166626,0,0,0,0,0,0
5.810038,-0.1374799,-1,-0.8569256,0.7214118,0,0,0,0,0,0,0,0,0,0,0,1,0,0,0,0,0,0.09460449,-0.9650879,-0.1804199,0,0,0,0,0,0
5.820038,-0.1848525,-1,-0.8569256,0.7214118,0,0,0,0,0,0,0,0,0,0,0,1,0,0,0,0,0,0.09240723,-0.9569092,-0.2266846,0,0,0,0,0,0
5.830039,-0.2244794,-1,-0.8569256,0.7214118,0,0,0,0,0,0,0,0,0,0,0,1,0,0,0.01130328,-0.01476347,0.006459019,0.07336426,-0.9832764,-0.2172852,0,0,0,0,0,0
5.840039,-0.2324234,-1,-0.8569256,0.7214118,0,0,0,0,0,0,0,0,0,0,0,1,0,0,0,0,0,0.06774902,-0.9819336,-0.1789551,0,0,0,0,0,0
5.850039,-0.2403741,-1,-0.8569256,0.7214118,0,0,0,0,0,0,0,0,0,0,0,1,0,0,0,0,0,0.06384277,-0.9847412,-0.1772461,0,0,0,0,0,0
5.860039,-0.2403741,-1,-0.8569256,0.7214118,0,0,0,0,0,0,0,0,0,0,0,1,0,0,0.0007497177,-0.01049605,-0.004998118,0.05517578,-0.9754639,-0.1881104,0,0,0,0,0,0
5.870039,-0.2403741,-1,-0.8569256,0.7214118,0,0,0,0,0,0,0,0,0,0,0,1,0,0,0,0,0,0.04223633,-0.9498291,-0.1796875,0,0,0,0,0,0
5.88004,-0.2403741,-1,-0.8569256,0.7214118,0,0,0,0,0,0,0,0,0,0,0,1,0,0,0,0,0,0.06323242,-0.9716797,-0.2087402,0,0,0,0,0,0
5.89004,-0.2403741,-1,-0.8569256,0.7214118,0,0,0,0,0,0,0,0,0,0,0,1,0,0,0.04647871,-0.01599267,-0.006247139,0.07788086,-1.001099,-0.2115479,0,0,0,0,0,0
5.90004,-0.2324234,-1,-0.855685,0.7044476,0,0,0,0,0,0,0,0,0,0,0,1,0,0,0,0,0,0.08764648,-0.9780273,-0.2043457,0,0,0,0,0,0
5.91004,-0.2006854,-1,-0.8519304,0.6538071,0,0,0,0,0,0,0,0,0,0,0,0,0,0,0,0,0,0.0814209,-0.9882813,-0.152832,0,0,0,0,0,0
5.920041,-0.1611441,-1,-0.8481457,0.6035641,0,0,0,0,0,0,0,0,0,0,0,0,0,0,0.04573278,-0.01174558,-0.001749341,0.06933594,-1.030396,-0.1177979,0,0,0,0,0,0
5.930041,-0.113854,-1,-0.8462505,0.5785992,0,0,0,0,0,0,0,0,0,0,0,0,0,0,0,0,0,0.04418945,-1.056274,-0.1257324,0,0,0,0,0,0
5.940041,-0.02745281,-1,-0.8437298,0.5454812,0,0,0,0,0,0,0,0,0,0,0,0,0,0,0,0,0,0.03894043,-0.9511719,-0.09387207,0,0,0,0,0,0
5.950041,0.07454614,-1,-0.8330128,0.5201442,0,0,0,0,0,0,0,0,0,0,0,0,0,0,0.02329655,0.0009226355,-0.003459883,0.06005859,-1.011475,-0.1474609,0,0,0,0,0,0
5.960042,0.1453634,-1,-0.8140754,0.5024676,0,0,0,0,0,0,0,0,0,0,0,0,0,0,0,0,0,0.05993652,-0.9822998,-0.1544189,0,0,0,0,0,0
5.970042,0.2562958,-1,-0.7856356,0.4760255,0,0,0,0,0,0,0,0,0,0,0,0,0,0,0,0,0,0.05871582,-0.9754639,-0.1462402,0,0,0,0,0,0
5.980042,0.3444016,-1,-0.7578302,0.4577756,0,0,0,0,0,0,0,0,0,0,0,0,0,0,0.05167215,0.001153396,0.01453279,0.04980469,-0.9940186,-0.1188965,0,0,0,0,0,0
5.990042,0.3928797,-1,-0.7307178,0.4476125,0,0,0,0,0,0,0,0,0,0,0,0,0,0,0,0,0,0.04589844,-1.000977,-0.1016846,0,0,0,0,0,0
6.000042,0.433522,-1,-0.7043715,0.4454674,0,0,0,0,0,0,0,0,0,0,0,0,0,0,0,0,0,0.05871582,-1.070923,-0.03869629,0,0,0,0,0,0
6.010043,0.4743927,-1,-0.6606785,0.4417107,0,0,0,0,0,0,0,0,0,0,0,0,0,0,0.01124577,0.02324125,0.02873918,0.003295898,-1.119751,-0.03442383,0,0,0,0,0,0
6.020043,0.4990265,-1,-0.6432849,0.4401423,0,0,0,0,0,0,0,0,0,0,0,0,0,0,0,0,0,0.03637695,-1.127197,-0.0604248,0,0,0,0,0,0
6.030043,0.5320019,-1,-0.6426148,0.5209363,0,0,0,0,0,0,0,0,0,0,0,1,0,0,0,0,0,0.03649902,-1.093872,-0.06896973,0,0,0,0,0,0
6.040043,0.5651261,-1,-0.643428,0.6203108,0,0,0,0,0,0,0,0,0,0,0,1,0,0,-0.1082004,0.01449336,-0.01399359,0.05224609,-0.9761963,-0.1920166,0,0,0,0,0,0
6.050044,0.5806994,-1,-0.6394497,0.6704534,0,0,0,0,0,0,0,0,0,0,0,1,0,0,0,0,0,0.08569336,-0.9737549,-0.2432861,0,0,0,0,0,0
6.060044,0.6051498,-0.9978961,-0.6437842,0.7218187,0,0,0,0,0,0,0,0,0,0,0,1,0,0,0,0,0,0.06604004,-0.9250488,-0.2268066,0,0,0,0,0,0
6.070044,0.6129544,-0.9895408,-0.6458828,0.7476583,0,0,0,0,0,0,0,0,0,0,0,1,0,0,0,0,0,0.1263428,-0.9388428,-0.2456055,0,0,0,0,0,0
6.080044,0.6124081,-0.9806534,-0.6458828,0.7476583,0,0,0,0,0,0,0,0,0,0,0,1,0,0,0,0,0,0.1054688,-0.9368896,-0.2314453,0,0,0,0,0,0
6.090044,0.6207611,-0.981203,-0.6458828,0.7476583,0,0,0,0,0,0,0,0,0,0,0,1,0,0,0,0,0,0.09680176,-0.9533691,-0.1876221,0,0,0,0,0,0
6.100045,0.6207611,-0.981203,-0.6367659,0.7383359,0,0,0,0,0,0,0,0,0,0,0,1,0,0,0.0325229,-0.008995697,0.003229225,0.08325195,-0.9383545,-0.1611328,0,0,0,0,0,0
6.110045,0.6207611,-0.981203,-0.6255054,0.7032079,0,0,0,0,0,0,0,0,0,0,0,1,0,0,0,0,0,0.06518555,-0.9245605,-0.1712646,0,0,0,0,0,0
6.120045,0.6207611,-0.981203,-0.6103401,0.6256946,0,0,0,0,0,0,0,0,0,0,0,1,0,0,0,0,0,0.09020996,-0.9696045,-0.1977539,0,0,0,0,0,0
6.130045,0.6207611,-0.981203,-0.5922092,0.5243126,0,0,0,0,0,0,0,0,0,0,0,1,0,0,0.09757732,-0.01499415,0.009919208,0.07165527,-1.001465,-0.1904297,0,0,0,0,0,0
6.140046,0.6202084,-0.9723267,-0.5760056,0.449656,0,0,0,0,0,0,0,0,0,0,0,0,0,0,0,0,0,0.06726074,-1.028198,-0.1600342,0,0,0,0,0,0
6.150046,0.6207611,-0.981203,-0.5550844,0.3374042,0,0,0,0,0,0,0,0,0,0,0,0,0,0,0,0,0,0.04785156,-1.068237,-0.1037598,0,0,0,0,0,0
6.160046,0.6207611,-0.981203,-0.5323861,0.2894179,0,0,0,0,0,0,0,0,0,0,0,0,0,0,0,0,0,0.03369141,-1.135132,-0.0880127,0,0,0,0,0,0
6.170046,0.6124081,-0.9806534,-0.499946,0.2342404,0,0,0,0,0,0,0,0,0,0,0,0,0,0,0,0,0,0.009155273,-1.03186,-0.05822754,0,0,0,0,0,0
6.180047,0.5713281,-0.9868394,-0.4796972,0.2105146,0,0,0,0,0,0,0,0,0,0,0,0,0,0,0,0,0,0.01843262,-1.012207,-0.0637207,0,0,0,0,0,0
6.190047,0.5320019,-1,-0.4505334,0.1863108,0,0,0,0,0,0,0,0,0,0,0,0,0,0,-0.05784063,-0.00280636,-0.04557683,0.04931641,-1.036743,-0.1273193,0,0,0,0,0,0
6.200047,0.4825947,-1,-0.3564052,0.1356232,0,0,0,0,0,0,0,0,0,0,0,0,0,0,-0.02898908,-0.008246895,-0.0169936,0.06408691,-0.9976807,-0.1398926,0,0,0,0,0,0
6.210047,0.4662001,-1,-0.1901017,0.07159675,0,0,0,0,0,0,0,0,0,0,0,0,0,0,0,0,0,0.07116699,-0.9801025,-0.126709,0,0,0,0,0,0
6.220047,0.4253754,-1,0,0,0,0,0,0,0,0,0,0,0,0,0,0,0,0,-0.02299134,-0.006497554,-0.01574407,0.0916748,-0.9945068,-0.1098633,0,0,0,0,0,0
6.230048,0.4172379,-1,0,0,0,0,0,0,0,0,0,0,0,0,0,0,0,0,0,0,0,0.08508301,-0.9958496,-0.1135254,0,0,0,0,0,0
6.240048,0.3928797,-1,0,0,0,0,0,0,0,0,0,0,0,0,0,0,0,0,0,0,0,0.05273438,-0.9790039,-0.1094971,0,0,0,0,0,0
6.250048,0.3686016,-1,0,0,0,0,0,0,0,0,0,0,0,0,0,0,0,0,-0.0110726,-0.003921547,-0.005074943,0.06542969,-1.002808,-0.1071777,0,0,0,0,0,0
6.260048,0.3605264,-1,0,0,0,0,0,0,0,0,0,0,0,0,0,0,0,0,0,0,0,0.05151367,-1.034668,-0.07739258,0,0,0,0,0,0
6.270049,0.3444016,-1,0,0,0,0,0,0,0,0,0,0,0,0,0,0,0,0,0,0,0,-0.002075195,-1.226929,0.09741211,0,0,0,0,0,0
6.280049,0.3444016,-1,0,0,0,0,0,0,0,0,0,0,0,0,0,1,0,0,-0.1109567,0.04013819,0.01614755,0.02905273,-1.069946,-0.08398438,0,0,0,0,0,0
6.290049,0.3444016,-1,0,0,0,0,0,0,0,0,0,0,0,0,0,1,0,0,0,0,0,0.06445313,-1.024292,-0.1920166,0,0,0,0,0,0
6.300049,0.3283107,-1,0,0,0,0,0,0,0,0,0,0,0,0,0,1,0,0,0,0,0,0.08703613,-0.9578857,-0.2766113,0,0,0,0,0,0
6.31005,0.2882255,-1,0,0,0,0,0,0,0,0,0,0,0,0,0,1,0,0,-0.0932149,-0.006997366,-0.02624012,0.04443359,-0.9321289,-0.2686768,0,0,0,0,0,0
6.32005,0.2483314,-1,0,0,0,0,0,0,0,0,0,0,0,0,0,1,0,0,0,0,0,0.1088867,-0.925415,-0.2453613,0,0,0,0,0,0
6.33005,0.1848525,-1,0,0,0,0,0,0,0,0,0,0,0,0,0,1,0,0,0,0,0,0.1063232,-0.902832,-0.2680664,0,0,0,0,0,0
6.34005,0.1059862,-1,0,0,0,0,0,0,0,0,0,0,0,0,0,1,0,0,0.005497482,-0.03673318,-0.01049519,0.1085205,-0.9249268,-0.2480469,0,0,0,0,0,0
6.35005,0.06669273,-1,0,0,0,0,0,0,0,0,0,0,0,0,0,1,0,0,0,0,0,0.09338379,-0.9176025,-0.1931152,0,0,0,0,0,0
6.360051,-0.01960851,-1,0,0,0,0,0,0,0,0,0,0,0,0,0,1,0,0,0,0,0,0.06945801,-0.9226074,-0.1599121,0,0,0,0,0,0
6.370051,-0.1059862,-1,0,0,0,0,0,0,0,0,0,0,0,0,0,1,0,0,0,0,0,0.07556152,-0.9526367,-0.1977539,0,0,0,0,0,0
6.380051,-0.1532514,-1,0,0,0,0,0,0,0,0,0,0,0,0,0,1,0,0,0,0,0,0.05847168,-0.9855957,-0.1761475,0,0,0,0,0,0
6.390051,-0.2086106,-1,0,0,0,0,0,0,0,0,0,0,0,0,0,0,0,0,0,0,0,0.04772949,-0.9688721,-0.1956787,0,0,0,0,0,0
6.400052,-0.2403741,-1,0,0,0,0,0,0,0,0,0,0,0,0,0,0,0,0,0,0,0,0.03930664,-1.058716,-0.1450195,0,0,0,0,0,0
6.410052,-0.2562958,-1,0,0,0,0,0,0,0,0,0,0,0,0,0,0,0,0,0.0154929,-0.005997253,-0.009995421,0.02429199,-1.05603,-0.145874,0,0,0,0,0,0
6.420052,-0.2642672,-1,0,0,0,0,0,0,0,0,0,0,0,0,0,0,0,0,0,0,0,0.03552246,-1.027344,-0.1105957,0,0,0,0,0,0
6.430052,-0.2722459,-1,0,0,0,0,0,0,0,0,0,0,0,0,0,0,0,0,0,0,0,0.04125977,-1.001099,-0.1242676,0,0,0,0,0,0
6.440053,-0.2802319,-1,0,0,0,0,0,0,0,0,0,0,0,0,0,0,0,0,0,0,0,0.05981445,-1.022827,-0.1663818,0,0,0,0,0,0
6.450053,-0.2802319,-1,0,0,0,0,0,0,0,0,0,0,0,0,0,0,0,0,0,0,0,0.07836914,-0.9931641,-0.1628418,0,0,0,0,0,0
6.460053,-0.2802319,-1,0,0,0,0,0,0,0,0,0,0,0,0,0,0,0,0,0,0,0,0.07958984,-1.001465,-0.1164551,0,0,0,0,0,0
6.470053,-0.2802319,-1,0,0,0,0,0,0,0,0,0,0,0,0,0,0,0,0,0,0,0,0.08166504,-1.012939,-0.1022949,0,0,0,0,0,0
6.480053,-0.2483314,-1,0,0,0,0,0,0,0,0,0,0,0,0,0,0,0,0,0,0,0,0.08227539,-1.046997,-0.03833008,0,0,0,0,0,0
6.490054,-0.2006854,-1,0,0,0,0,0,0,0,0,0,0,0,0,0,0,0,0,0,0,0,0.04602051,-1.101318,-0.0456543,0,0,0,0,0,0
6.500054,-0.1532514,-1,0,0,0,0,0,0,0,0,0,0,0,0,0,0,0,0,0,0,0,0.07141113,-1.039917,-0.1009521,0,0,0,0,0,0
6.510054,-0.04314433,-1,0,0,0,0,0,0,0,0,0,0,0,0,0,1,0,0,0,0,0,0.06237793,-0.9832764,-0.1611328,0,0,0,0,0,0
6.520054,0.08240198,-1,0,0,0,0,0,0,0,0,0,0,0,0,0,1,0,0,-0.04398344,0.01474445,0.007996988,0.07141113,-0.914917,-0.2183838,0,0,0,0,0,0
6.530055,0.1690417,-1,0,0,0,0,0,0,0,0,0,0,0,0,0,1,0,0,0,0,0,0.04650879,-0.9361572,-0.1287842,0,0,0,0,0,0
6.540055,0.2722459,-1,0,0,0,0,0,0,0,0,0,0,0,0,0,1,0,0,0,0,0,0.1051025,-0.9615479,-0.2282715,0,0,0,0,0,0
6.550055,0.3401163,-0.9187048,0,0,0,0,0,0,0,0,0,0,0,0,0,1,0,0,0.0133794,-0.007843095,0.01199532,0.07714844,-0.9333496,-0.2530518,0,0,0,0,0,0
6.560055,0.3776575,-0.8760096,0,0,0,0,0,0,0,0,0,0,0,0,0,1,0,0,0,0,0,0.08886719,-0.9527588,-0.260498,0,0,0,0,0,0
6.570055,0.4144402,-0.8250073,0,0,0,0,0,0,0,0,0,0,0,0,0,1,0,0,0,0,0,0.07092285,-0.9564209,-0.1922607,0,0,0,0,0,0
6.580056,0.4510156,-0.7748216,0,0,0,0,0,0,0,0,0,0,0,0,0,1,0,0,0.04244498,-0.01061124,0.004613584,0.08984375,-0.9489746,-0.189209,0,0,0,0,0,0
6.590056,0.4726316,-0.7416089,0,0,0,0,0,0,0,0,0,0,0,0,0,1,0,0,0,0,0,0.06176758,-0.9282227,-0.1552734,0,0,0,0,0,0
6.600056,0.5076004,-0.6755282,0,0,0,0,0,0,0,0,0,0,0,0,0,1,0,0,0,0,0,0.08361816,-0.9125977,-0.189209,0,0,0,0,0,0
6.610056,0.5584027,-0.6039866,0,0,0,0,0,0,0,0,0,0,0,0,0,1,0,0,0.127452,-0.003998494,0.009496424,0.06872559,-0.9752197,-0.1959229,0,0,0,0,0,0
6.620057,0.5955182,-0.5575871,0,0,0,0,0,0,0,0,0,0,0,0,0,0,0,0,0,0,0,0.07373047,-0.9801025,-0.1987305,0,0,0,0,0,0
6.630057,0.6693939,-0.4424807,0,0,0,0,0,0,0,0,0,0,0,0,0,0,0,0,0,0,0,0.05822754,-0.9984131,-0.1248779,0,0,0,0,0,0
6.640057,0.7529764,-0.2837851,0,0,0,0,0,0,0,0,0,0,0,0,0,0,0,0,0.1361987,0.02349116,0.03598645,0.05456543,-1.031738,-0.08886719,0,0,0,0,0,0
6.650057,0.8185794,-0.1561012,0,0,0,0,0,0,0,0,0,0,0,0,0,0,0,0,0,0,0,0.06140137,-1.077881,-0.1054688,0,0,0,0,0,0
6.660058,0.9176438,0.08131021,0,0,0,0,0,0,0,0,0,0,0,0,0,0,0,0,0,0,0,0.03710938,-1.028687,-0.07543945,0,0,0,0,0,0
6.670058,0.9865369,0.239756,0,0,0,0,0,0,0,0,0,0,0,0,0,0,0,0,0,0,0,0.02416992,-1.016724,-0.08361816,0,0,0,0,0,0
6.680058,1,0.4662001,0,0,0,0,0,0,0,0,0,0,0,0,0,0,0,0,0,0,0,-0.0201416,-0.9655762,-0.1605225,0,0,0,0,0,0
6.690058,0.9545932,0.6190876,0,0,0,0,0,0,0,0,0,0,0,0,0,0,0,0,0.2108614,0.0706076,0.04006161,0.01708984,-0.9907227,-0.1656494,0,0,0,0,0,0
6.700058,0.8993645,0.7075,0,0,0,0,0,0,0,0,0,0,0,0,0,0,0,0,0,0,0,0.0222168,-1.00708,-0.1037598,0,0,0,0,0,0
6.710059,0.8599966,0.763997,0,0,0,0,0,0,0,0,0,0,0,0,0,0,0,0,0,0,0,0.01538086,-1.042358,-0.0333252,0,0,0,0,0,0
6.720059,0.8197833,0.8037875,0,0,0,0,0,0,0,0,0,0,0,0,0,0,0,0,0.1329499,-0.003248777,0.0127452,0.02075195,-1.063354,0.001953125,0,0,0,0,0,0
6.730059,0.7964199,0.836441,0,0,0,0,0,0,0,0,0,0,0,0,0,0,0,0,0,0,0,0.05773926,-1.042725,-0.03137207,0,0,0,0,0,0
6.740059,0.7560699,0.8680802,0,0,0,0,0,0,0,0,0,0,0,0,0,0,0,0,0,0,0,0.05908203,-1.043091,-0.01672363,0,0,0,0,0,0
6.75006,0.7238518,0.8918174,0,0,0,0,0,0,0,0,0,0,0,0,0,0,0,0,0.0643595,-0.005766981,0,0.06921387,-1.02124,-0.03051758,0,0,0,0,0,0
6.76006,0.7002302,0.9163012,0,0,0,0,0,0,0,0,0,0,0,0,0,0,0,0,0,0,0,0.06506348,-1.02356,-0.0447998,0,0,0,0,0,0
6.77006,0.6760875,0.9321206,0,0,0,0,0,0,0,0,0,0,0,0,0,0,0,0,0,0,0,0.06396484,-1.017212,-0.04919434,0,0,0,0,0,0
6.78006,0.6520168,0.9480243,0,0,0,0,0,0,0,0,0,0,0,0,0,0,0,0,0.0382356,-0.004748212,-0.004998118,0.05493164,-1.011597,-0.05480957,0,0,0,0,0,0
6.790061,0.6436275,0.9474515,0,0,0,0,0,0,0,0,0,0,0,0,0,0,0,0,0,0,0,0.04553223,-1.009399,-0.05761719,0,0,0,0,0,0
6.800061,0.6280115,0.9640176,0,0,0,0,0,0,0,0,0,0,0,0,0,0,0,0,0,0,0,0.05578613,-1.022095,-0.04638672,0,0,0,0,0,0
6.810061,0.6196507,0.9634567,0,0,0,0,0,0,0,0,0,0,0,0,0,0,0,0,0.01824313,-0.004748212,-0.003998494,0.0501709,-1.015869,-0.03820801,0,0,0,0,0,0
6.820061,0.6112997,0.9628969,0,0,0,0,0,0,0,0,0,0,0,0,0,0,0,0,0,0,0,0.0526123,-0.9979248,-0.05554199,0,0,0,0,0,0
6.830061,0.6035143,0.9712184,0,0,0,0,0,0,0,0,0,0,0,0,0,0,0,0,0,0,0,0.05969238,-0.9903564,-0.08068848,0,0,0,0,0,0
6.840062,0.6035143,0.9712184,0,0,0,0,0,0,0,0,0,0,0,0,0,0,0,0,0.03548375,-0.01199451,0.0002498855,0.05456543,-0.982666,-0.09558105,0,0,0,0,0,0
6.850062,0.5957312,0.979558,0,0,0,0,0,0,0,0,0,0,0,0,0,0,0,0,0,0,0,0.05102539,-0.9874268,-0.08740234,0,0,0,0,0,0
6.860062,0.5874074,0.9790122,0,0,0,0,0,0,0,0,0,0,0,0,0,0,0,0,0,0,0,0.03369141,-1.001465,-0.0592041,0,0,0,0,0,0
6.870062,0.5874074,0.9790122,-0.02196235,-0.0005107524,0,0,0,0,0,0,0,0,0,0,0,0,0,0,0,0,0,0.02624512,-1.035889,-0.02294922,0,0,0,0,0,0
6.880063,0.579634,0.9873765,-0.1699411,-0.0113294,0,0,0,0,0,0,0,0,0,0,0,0,0,0,0.01124485,-0.007996337,-0.002498855,0.03613281,-1.052246,-0.01965332,0,0,0,0,0,0
6.890063,0.579634,0.9873765,-0.2810015,-0.02554559,0,0,0,0,0,0,0,0,0,0,0,0,0,0,0,0,0,0.03662109,-1.050415,-0.03430176,0,0,0,0,0,0
6.900063,0.579634,0.9873765,-0.4474461,-0.04971623,0,0,0,0,0,0,0,0,0,0,0,0,0,0,0,0,0,0.03381348,-1.032837,-0.04589844,0,0,0,0,0,0
6.910063,0.579634,0.9873765,-0.6234982,-0.0901009,0,0,0,0,0,0,0,0,0,0,0,0,0,0,-0.02468268,-0.008765811,-0.01430211,0.04138184,-1.004883,-0.04626465,0,0,0,0,0,0
6.920063,0.579634,0.9873765,-0.7437409,-0.1158591,0,0,0,0,0,0,0,0,0,0,0,0,0,0,0,0,0,0.0534668,-0.9888916,-0.04138184,0,0,0,0,0,0
6.930064,0.579634,0.9873765,-0.9006844,-0.1430271,0,0,0,0,0,0,0,0,0,0,0,0,0,0,0,0,0,0.06311035,-0.9776611,-0.05419922,0,0,0,0,0,0
6.940064,0.579634,0.9873765,-1,-0.1532514,0,0,0,0,0,0,0,0,0,0,0,0,0,0,-0.02029977,-0.01084192,-0.02468268,0.07543945,-0.9963379,-0.04199219,0,0,0,0,0,0
6.950064,0.579634,0.9873765,-1,-0.1532514,0,0,0,0,0,0,0,0,0,0,0,0,0,0,0,0,0,0.1253662,-0.9978027,-0.05639648,0,0,0,0,0,0
6.960064,0.579634,0.9873765,-1,-0.1453634,0,0,0,0,0,0,0,0,0,0,0,0,0,0,0,0,0,0.06091309,-1.038086,-0.0604248,0,0,0,0,0,0
6.970065,0.579634,0.9873765,-1,-0.1374799,0,0,0,0,0,0,0,0,0,0,0,0,0,0,0.004748212,-0.005248024,-0.002998871,0.06091309,-1.046875,-0.03356934,0,0,0,0,0,0
6.980065,0.579634,0.9873765,-1,-0.1296006,0,0,0,0,0,0,0,0,0,0,0,0,0,0,0,0,0,0.05981445,-1.035767,-0.03967285,0,0,0,0,0,0
6.990065,0.579634,0.9873765,-1,-0.1217254,0,0,0,0,0,0,0,0,0,0,0,0,0,0,0,0,0,0.05627441,-1.023926,-0.0480957,0,0,0,0,0,0
7.000065,0.579634,0.9873765,-1,-0.1059862,0,0,0,0,0,0,0,0,0,0,0,0,0,0,0.0004998118,-0.003748589,-0.01549417,0.05053711,-1.01355,-0.05505371,0,0,0,0,0,0
7.010066,0.579634,0.9873765,-1,-0.09026043,0,0,0,0,0,0,0,0,0,0,0,0,0,0,0,0,0,0.04638672,-1.016846,-0.05786133,0,0,0,0,0,0
7.020066,0.579634,0.9873765,-1,-0.07454614,0,0,0,0,0,0,0,0,0,0,0,0,0,0,0,0,0,0.03820801,-1.020874,-0.05273438,0,0,0,0,0,0
7.030066,0.579634,0.9873765,-1,-0.05099206,0,0,0,0,0,0,0,0,0,0,0,0,0,0,0.001749199,-0.004747826,-0.01824165,0.04833984,-1.017578,-0.04882813,0,0,0,0,0,0
7.040066,0.579634,0.9873765,-1,-0.04314433,0,0,0,0,0,0,0,0,0,0,0,0,0,0,0,0,0,0.05200195,-1.028687,-0.04541016,0,0,0,0,0,0
7.050066,0.5962749,0.9884557,-1,-0.035298,0,0,0,0,0,0,0,0,0,0,0,0,0,0,0,0,0,0.05249023,-1.036499,-0.04016113,0,0,0,0,0,0
7.060067,0.6129544,0.9895408,-1,-0.02745281,0,0,0,0,0,0,0,0,0,0,0,0,0,0,0,0,0,0.04553223,-1.031494,-0.04968262,0,0,0,0,0,0
7.070067,0.6291237,0.9817535,-1,-0.02745281,0,0,0,0,0,0,0,0,0,0,0,0,0,0,0,0,0,0.07824707,-1.019165,-0.06713867,0,0,0,0,0,0
7.080067,0.6531526,0.965704,-0.8711076,0.04988722,0,0,0,0,0,0,0,0,0,0,0,0,0,0,0,0,0,0.102417,-0.9798584,-0.0925293,0,0,0,0,0,0
7.090067,0.6693956,0.9579972,-0.6438721,0.1345948,0,0,0,0,0,0,0,0,0,0,0,0,0,0,0,0,0,0.07617188,-0.918457,-0.1066895,0,0,0,0,0,0
7.100068,0.6772434,0.9497437,-0.211648,0.1511771,0,0,0,0,0,0,0,0,0,0,0,0,0,0,0,0,0,0.0546875,-0.9080811,-0.09875488,0,0,0,0,0,0
7.110068,0.6772434,0.9497437,0,0,0,0,0,0,0,0,0,0,0,0,0,0,0,0,0,0,0,-0.02258301,-0.9556885,0.006347656,0,0,0,0,0,0
7.120068,0.6772434,0.9497437,0,0,0,0,0,0,0,0,0,0,0,0,0,0,0,0,0,0,0,0.02282715,-1.020386,-0.01965332,0,0,0,0,0,0
7.130068,0.6772434,0.9497437,0,0,0,0,0,0,0,0,0,0,0,0,0,0,0,0,0,0,0,0.06848145,-0.9951172,-0.04382324,0,0,0,0,0,0
7.140069,0.6856716,0.9503168,0,0,0,0,0,0,0,0,0,0,0,0,0,0,0,0,0,0,0,0.07873535,-1.003662,-0.02172852,0,0,0,0,0,0
7.150069,0.6856716,0.9503168,0,0,0,0,0,0,0,0,0,0,0,0,0,0,0,0,0,0,0,0.08508301,-1.018311,-0.02124023,0,0,0,0,0,0
7.160069,0.6772434,0.9497437,0,0,0,0,0,0,0,0,0,0,0,0,0,0,0,0,0,0,0,0.08544922,-1.02356,-0.01708984,0,0,0,0,0,0
7.170069,0.6856716,0.9503168,0,0,0,0,0,0,0,0,0,0,0,0,0,0,0,0,0,0,0,0.08081055,-1.034912,-0.009399414,0,0,0,0,0,0
7.180069,0.6772434,0.9497437,0,0,0,0,0,0,0,0,0,0,0,0,0,0,0,0,0,0,0,0.08374023,-1.046875,-0.02600098,0,0,0,0,0,0
7.19007,0.6856716,0.9503168,0,0,0,0,0,0,0,0,0,0,0,0,0,0,0,0,0,0,0,0.07458496,-1.046143,-0.01123047,0,0,0,0,0,0
7.20007,0.6856716,0.9503168,0,0,0,0,0,0,0,0,0,0,0,0,0,0,0,0,0.03023862,0.01049605,0.00674746,0.07263184,-1.046753,-0.008666992,0,0,0,0,0,0
7.21007,0.6856716,0.9503168,0,0,0,0,0,0,0,0,0,0,0,0,0,0,0,0,0,0,0,0.06958008,-1.054932,0.0004882813,0,0,0,0,0,0
7.22007,0.6856716,0.9503168,0,0,0,0,0,0,0,0,0,0,0,0,0,0,0,0,0,0,0,0.06140137,-1.044922,0.002075195,0,0,0,0,0,0
7.230071,0.6856716,0.9503168,0,0,0,0,0,0,0,0,0,0,0,0,0,0,0,0,-0.007381736,0.01314872,0.01176464,0.0567627,-1.0177,-0.001831055,0,0,0,0,0,0
7.240071,0.6856716,0.9503168,0,0,0,0,0,0,0,0,0,0,0,0,0,0,0,0,0,0,0,0.05310059,-1.005249,-0.01489258,0,0,0,0,0,0
7.250071,0.6856716,0.9503168,0,0,0,0,0,0,0,0,0,0,0,0,0,0,0,0,0,0,0,0.0534668,-0.9963379,0.002441406,0,0,0,0,0,0
7.260071,0.6856716,0.9503168,0,0,0,0,0,0,0,0,0,0,0,0,0,0,0,0,-0.02199172,0.01024614,0.008496801,0.05700684,-1.002686,-0.004760742,0,0,0,0,0,0
7.270072,0.6856716,0.9503168,0,0,0,0,0,0,0,0,0,0,0,0,0,0,0,0,0,0,0,0.05603027,-0.9870605,-0.006103516,0,0,0,0,0,0
7.280072,0.6772434,0.9497437,0,0,0,0,0,0,0,0,0,0,0,0,0,0,0,0,0,0,0,0.04467773,-1.003784,-0.0004882813,0,0,0,0,0,0
7.290072,0.6772434,0.9497437,0,0,0,0,0,0,0,0,0,0,0,0,0,0,0,0,-0.0172421,0.009495651,0.0002498855,0.04931641,-1.008911,0.01452637,0,0,0,0,0,0
7.300072,0.6772434,0.9497437,0,0,0,0,0,0,0,0,0,0,0,0,0,0,0,0,0,0,0,0.05041504,-1.000366,-0.0003662109,0,0,0,0,0,0
7.310072,0.6688248,0.9491705,0,0,0,0,0,0,0,0,0,0,0,0,0,0,0,0,0,0,0,0.04663086,-1.01355,-0.01538086,0,0,0,0,0,0
7.320073,0.6520168,0.9480243,0,0,0,0,0,0,0,0,0,0,0,0,0,0,0,0,-0.01549417,-0.0007497177,-0.01474445,0.05224609,-1.008423,-0.01745605,0,0,0,0,0,0
7.330073,0.6436275,0.9474515,0,0,0,0,0,0,0,0,0,0,0,0,0,0,0,0,0,0,0,0.06005859,-1.016479,-0.01098633,0,0,0,0,0,0
7.340073,0.6274477,0.9551592,0,0,0,0,0,0,0,0,0,0,0,0,0,0,0,0,0,0,0,0.05541992,-1.008545,-0.01672363,0,0,0,0,0,0
7.350073,0.6190876,0.9545932,0,0,0,0,0,0,0,0,0,0,0,0,0,0,0,0,-0.01522483,0.002306792,-0.00899649,0.06384277,-1.007568,-0.01916504,0,0,0,0,0,0
7.360074,0.6196507,0.9634567,0,0,0,0,0,0,0,0,0,0,0,0,0,0,0,0,0,0,0,0.0682373,-0.9880371,-0.01550293,0,0,0,0,0,0
7.370074,0.6112997,0.9628969,0,0,0,0,0,0,0,0,0,0,0,0,0,0,0,0,0,0,0,0.05627441,-0.9929199,-0.03356934,0,0,0,0,0,0
7.380074,0.6029587,0.962338,0,0,0,0,0,0,0,0,0,0,0,0,0,0,0,0,-0.000922717,0.002076113,-0.005074943,0.04882813,-0.9987793,-0.02380371,0,0,0,0,0,0
7.390074,0.6029587,0.962338,0,0,0,0,0,0,0,0,0,0,0,0,0,0,0,0,0,0,0,0.04187012,-1.002319,-0.01757813,0,0,0,0,0,0
7.400074,0.5951821,0.9706661,0,0,0,0,0,0,0,0,0,0,0,0,0,0,0,0,0,0,0,0.04345703,-1.036621,-0.0008544922,0,0,0,0,0,0
7.410075,0.5874074,0.9790122,0,0,0,0,0,0,0,0,0,0,0,0,0,0,0,0,-0.009746331,0.004748212,-0.006247648,0.04211426,-1.024414,-0.005737305,0,0,0,0,0,0
7.420075,0.5790934,0.9784681,0,0,0,0,0,0,0,0,0,0,0,0,0,0,0,0,0,0,0,0.03918457,-1.015625,-0.0078125,0,0,0,0,0,0
7.430075,0.563032,0.9863042,0,0,0,0,0,0,0,0,0,0,0,0,0,0,0,0,0,0,0,0.04016113,-1.036621,-0.001953125,0,0,0,0,0,0
7.440075,0.5552751,0.9947014,0,0,0,0,0,0,0,0,0,0,0,0,0,0,0,0,-0.04697848,0.007246681,-0.0242389,0.04711914,-1.044434,-0.01074219,0,0,0,0,0,0
7.450076,0.5469962,0.9941757,0,0,0,0,0,0,0,0,0,0,0,0,0,1,0,0,0,0,0,0.05993652,-1.030518,-0.01721191,0,0,0,0,0,0
7.460076,0.5469962,0.9941757,0,0,0,0,0,0,0,0,0,0,0,0,0,1,0,0,0,0,0,0.09667969,-1.023682,-0.03723145,0,0,0,0,0,0
7.470076,0.5387272,0.9936524,0,0,0,0,0,0,0,0,0,0,0,0,0,1,0,0,-0.03898532,0.0004998118,-0.008246895,0.09069824,-1.014771,-0.04467773,0,0,0,0,0,0
7.480076,0.5387272,0.9936524,0,0,0,0,0,0,0,0,0,0,0,0,0,1,0,0,0,0,0,0.07421875,-1.015747,-0.03173828,0,0,0,0,0,0
7.490077,0.5387272,0.9936524,0,0,0,0,0,0,0,0,0,0,0,0,0,1,0,0,0,0,0,0.06530762,-1.009277,-0.003540039,0,0,0,0,0,0
7.500077,0.5387272,0.9936524,0,0,0,0,0,0,0,0,0,0,0,0,0,1,0,0,-0.02168385,0.009457849,0.009227169,0.05310059,-1.02356,0.008666992,0,0,0,0,0,0
7.510077,0.5387272,0.9936524,0,0,0,0,0,0,0,0,0,0,0,0,0,1,0,0,0,0,0,0.05639648,-1.018555,-0.001953125,0,0,0,0,0,0
7.520077,0.5387272,0.9936524,0,0,0,0,0,0,0,0,0,0,0,0,0,1,0,0,0,0,0,0.05541992,-0.9890137,-0.0357666,0,0,0,0,0,0
7.530077,0.5387272,0.9936524,0,0,0,0,0,0,0,0,0,0,0,0,0,1,0,0,0,0,0,0.0423584,-0.9750977,-0.009765625,0,0,0,0,0,0
7.540078,0.5387272,0.9936524,0,0,0,0,0,0,0,0,0,0,0,0,0,1,0,0,0,0,0,0.05541992,-0.9969482,-0.04541016,0,0,0,0,0,0
7.550078,0.5387272,0.9936524,0,0,0,0,0,0,0,0,0,0,0,0,0,1,0,0,0,0,0,0.06750488,-0.998291,-0.06518555,0,0,0,0,0,0
7.560078,0.5387272,0.9936524,0,0,0,0,0,0,0,0,0,0,0,0,0,1,0,0,-0.004748212,0.003498683,0.001499435,0.0670166,-0.9931641,-0.06030273,0,0,0,0,0,0
7.570078,0.5387272,0.9936524,0,0,0,0,0,0,0,0,0,0,0,0,0,1,0,0,0,0,0,0.07788086,-0.9920654,-0.07006836,0,0,0,0,0,0
7.580079,0.5387272,0.9936524,0.01555,0.04872335,0,0,0,0,0,0,0,0,0,0,0,1,0,0,0,0,0,0.07702637,-0.9954834,-0.06860352,0,0,0,0,0,0
7.590079,0.5387272,0.9936524,0.05687224,0.1369147,0,0,0,0,0,0,0,0,0,0,0,1,0,0,0.003248777,-0.003998494,0.007247271,0.05639648,-1.024536,-0.03552246,0,0,0,0,0,0
7.600079,0.5469962,0.9941757,0.1201934,0.243182,0,0,0,0,0,0,0,0,0,0,0,1,0,0,0,0,0,0.05981445,-1.038696,-0.03869629,0,0,0,0,0,0
7.610079,0.5469962,0.9941757,0.2424758,0.4405547,0,0,0,0,0,0,0,0,0,0,0,1,0,0,-0.01199451,-0.005247597,0.009745537,0.05737305,-1.021851,-0.06188965,0,0,0,0,0,0
7.62008,0.5469962,0.9941757,0.351036,0.6170843,0,0,0,0,0,0,0,0,0,0,0,1,0,0,0,0,0,0.05065918,-0.9949951,-0.06945801,0,0,0,0,0,0
7.63008,0.5469962,0.9941757,0.5073821,0.8849687,0,0,0,0,0,0,0,0,0,0,0,1,0,0,0,0,0,0.04956055,-0.9830322,-0.07165527,0,0,0,0,0,0
7.64008,0.5469962,0.9941757,0.55367,0.9679267,0,0,0,0,0,0,0,0,0,0,0,1,0,0,0.01499415,-0.01476347,-0.01314872,0.07312012,-0.9477539,-0.0612793,0,0,0,0,0,0
7.65008,0.5469962,0.9941757,0.55367,0.9679267,0,0,0,0,0,0,0,0,0,0,0,1,0,0,0,0,0,0.1057129,-1.030273,-0.01428223,0,0,0,0,0,0
7.66008,0.5469962,0.9941757,0.5619524,0.9684711,0,0,0,0,0,0,0,0,0,0,0,1,0,0,0,0,0,0.07995605,-1.038086,-0.03417969,0,0,0,0,0,0
7.670081,0.5469962,0.9941757,0.5702448,0.9690174,0,0,0,0,0,0,0,0,0,0,0,1,0,0,0.002768151,0.007151056,0.007151056,0.08410645,-1.07666,-0.007324219,0,0,0,0,0,0
7.680081,0.5469962,0.9941757,0.5785473,0.9695654,0,0,0,0,0,0,0,0,0,0,0,1,0,0,0,0,0,0.07958984,-1.074585,-0.01831055,0,0,0,0,0,0
7.690081,0.5469962,0.9941757,0.6029587,0.962338,0,0,0,0,0,0,0,0,0,0,0,1,0,0,0,0,0,0.06640625,-1.074829,-0.02490234,0,0,0,0,0,0
7.700081,0.5469962,0.9941757,0.6268787,0.9463074,0,0,0,0,0,0,0,0,0,0,0,1,0,0,-0.03273767,0.00674746,0.01349492,0.05908203,-1.049927,-0.02001953,0,0,0,0,0,0
7.710082,0.5469962,0.9941757,0.6755022,0.9233196,0,0,0,0,0,0,0,0,0,0,0,1,0,0,0,0,0,0.06237793,-1.034668,-0.0333252,0,0,0,0,0,0
7.720082,0.5552751,0.9947014,0.6953552,0.8463467,0,0,0,0,0,0,0,0,0,0,0,1,0,0,0,0,0,0.08081055,-1.008545,-0.05932617,0,0,0,0,0,0
7.730082,0.5469962,0.9941757,0.6549166,0.6549166,0,0,0,0,0,0,0,0,0,0,0,1,0,0,0,0,0,0.0904541,-1.007446,-0.05432129,0,0,0,0,0,0
7.740082,0.5469962,0.9941757,0.509943,0.386978,0,0,0,0,0,0,0,0,0,0,0,1,0,0,-0.02798946,0.003498683,0.0209921,0.1014404,-0.9970703,-0.05932617,0,0,0,0,0,0
7.750082,0.5469962,0.9941757,0.3833124,0.1998466,0,0,0,0,0,0,0,0,0,0,0,1,0,0,0,0,0,0.09729004,-0.9909668,-0.05639648,0,0,0,0,0,0
7.760083,0.5469962,0.9941757,0.1795021,0.01631838,0,0,0,0,0,0,0,0,0,0,0,1,0,0,0,0,0,0.06604004,-1.026001,0.0006103516,0,0,0,0,0,0
7.770083,0.5469962,0.9941757,0.03456881,-0.006913763,0,0,0,0,0,0,0,0,0,0,0,1,0,0,-0.02145317,0.01476347,0.0177623,0.04943848,-0.9829102,-0.046875,0,0,0,0,0,0
7.780083,0.5469962,0.9941757,0,0,0,0,0,0,0,0,0,0,0,0,0,1,0,0,0,0,0,0.04162598,-0.9459229,-0.0690918,0,0,0,0,0,0
7.790083,0.5469962,0.9941757,0,0,0,0,0,0,0,0,0,0,0,0,0,1,0,0,0,0,0,0.0526123,-0.9262695,-0.1015625,0,0,0,0,0,0
7.800084,0.5469962,0.9941757,0,0,0,0,0,0,0,0,0,0,0,0,0,1,0,0,0,0,0,0.03674316,-0.9176025,-0.0838623,0,0,0,0,0,0
7.810084,0.5469962,0.9941757,0,0,0,0,0,0,0,0,0,0,0,0,0,1,0,0,0,0,0,0.03869629,-0.9798584,-0.04760742,0,0,0,0,0,0
7.820084,0.5469962,0.9941757,0,0,0,0,0,0,0,0,0,0,0,0,0,1,0,0,0,0,0,0.03308105,-1.043213,-0.01733398,0,0,0,0,0,0
7.830084,0.5469962,0.9941757,0,0,0,0,0,0,0,0,0,0,0,0,0,1,0,0,0.02823937,0.004748212,0.021242,0.05187988,-1.046509,-0.02844238,0,0,0,0,0,0
7.840085,0.5469962,0.9941757,0,0,0,0,0,0,0,0,0,0,0,0,0,1,0,0,0,0,0,0.04650879,-1.038208,-0.01745605,0,0,0,0,0,0
7.850085,0.5469962,0.9941757,0,0,0,0,0,0,0,0,0,0,0,0,0,1,0,0,0,0,0,0.02880859,-0.996582,-0.008056641,0,0,0,0,0,0
7.860085,0.5469962,0.9941757,0,0,0,0,0,0,0,0,0,0,0,0,0,1,0,0,-0.02174181,0.01149567,-0.009996235,0.04394531,-0.9733887,-0.03869629,0,0,0,0,0,0
7.870085,0.5552751,0.9947014,0,0,0,0,0,0,0,0,0,0,0,0,0,1,0,0,0,0,0,0.05773926,-0.9848633,-0.07336426,0,0,0,0,0,0
7.880085,0.5552751,0.9947014,0,0,0,0,0,0,0,0,0,0,0,0,0,1,0,0,0,0,0,0.05737305,-0.9951172,-0.1004639,0,0,0,0,0,0
7.890086,0.5635635,0.9952292,0.00733856,-0.05136992,0,0,0,0,0,0,0,0,0,0,0,1,0,0,0.04298032,-0.008995879,0.005247597,0.06286621,-0.9837646,-0.1082764,0,0,0,0,0,0
7.900086,0.5635635,0.9952292,0.01576469,-0.1068496,0,0,0,0,0,0,0,0,0,0,0,1,0,0,0,0,0,0.08178711,-0.9887695,-0.1259766,0,0,0,0,0,0
7.910086,0.5635635,0.9952292,0.03266988,-0.2085846,0,0,0,0,0,0,0,0,0,0,0,0,0,0,0.08765811,-0.02837355,0.02352928,0.06005859,-0.9841309,-0.1242676,0,0,0,0,0,0
7.920086,0.5635635,0.9952292,0.03700127,-0.2817789,0,0,0,0,0,0,0,0,0,0,0,0,0,0,0,0,0,0.0567627,-1.009644,-0.04052734,0,0,0,0,0,0
7.930087,0.5635635,0.9952292,0.04048901,-0.3644011,0,0,0,0,0,0,0,0,0,0,0,0,0,0,0,0,0,0.03308105,-0.9909668,-0.01696777,0,0,0,0,0,0
7.940087,0.5635635,0.9952292,0.0471346,-0.3739345,0,0,0,0,0,0,0,0,0,0,0,0,0,0,0.01999084,-0.005997253,-0.01424348,-0.03039551,-1.005859,0.08398438,0,0,0,0,0,0
7.950087,0.5635635,0.9952292,0.05347466,-0.3743226,0,0,0,0,0,0,0,0,0,0,0,0,0,0,0,0,0,-0.007446289,-1.070801,0.06018066,0,0,0,0,0,0
7.960087,0.5552751,0.9947014,0.0507413,-0.3193717,0,0,0,0,0,0,0,0,0,0,0,0,0,0,0,0,0,0.02197266,-1.031006,-0.02307129,0,0,0,0,0,0
7.970088,0.5469962,0.9941757,0.03814678,-0.1305021,0,0,0,0,0,0,0,0,0,0,0,0,0,0,-0.02574031,-0.01074595,-0.03998494,0.02453613,-1.006714,-0.05908203,0,0,0,0,0,0
7.980088,0.5304679,0.9931315,0,0,0,0,0,0,0,0,0,0,0,0,0,0,0,0,0,0,0,0.01904297,-0.9927979,-0.03259277,0,0,0,0,0,0
7.990088,0.4743927,1,0,0,0,0,0,0,0,0,0,0,0,0,0,0,0,0,0,0,0,0.1040039,-1.00769,-0.004516602,0,0,0,0,0,0
8.000088,0.4172379,1,0,0,0,0,0,0,0,0,0,0,0,0,0,0,0,0,0,0,0,0.105835,-1.020874,-0.01000977,0,0,0,0,0,0
8.010088,0.3766855,1,0,0,0,0,0,0,0,0,0,0,0,0,0,0,0,0,0,0,0,0.07299805,-1.005981,-0.01916504,0,0,0,0,0,0
8.020088,0.3202776,1,0,0,0,0,0,0,0,0,0,0,0,0,0,0,0,0,0,0,0,-0.03173828,-1.159668,0.1186523,0,0,0,0,0,0
8.030088,0.2722459,1,0,0,0,0,0,0,0,0,0,0,0,0,0,0,0,0,-0.0464825,0.02249153,0.02274144,-0.004150391,-1.088257,0.04528809,0,0,0,0,0,0
8.040089,0.2086106,1,0,0,0,0,0,0,0,0,0,0,0,0,0,1,0,0,-0.1007039,0.02223982,0.006497024,0.03393555,-1.080933,0.06286621,0,0,0,0,0,0
8.050089,0.1374799,1,0,0,0,0,0,0,0,0,0,0,0,0,0,1,0,0,0,0,0,0.0670166,-1.03833,-0.01708984,0,0,0,0,0,0
8.060089,0.07454614,1,0,0,0,0,0,0,0,0,0,0,0,0,0,1,0,0,0,0,0,0.04528809,-0.967041,0.05114746,0,0,0,0,0,0
8.070089,-0.035298,1,0,0,0,0,0,0,0,0,0,0,0,0,0,1,0,0,0,0,0,0.1176758,-0.9759521,-0.07641602,0,0,0,0,0,0
8.08009,-0.1611441,1,0,0,0,0,0,0,0,0,0,0,0,0,0,1,0,0,0,0,0,0.1617432,-0.9523926,-0.1933594,0,0,0,0,0,0
8.09009,-0.2882255,1,0,0,0,0,0,0,0,0,0,0,0,0,0,1,0,0,-0.06422582,-0.03598645,-0.01099586,0.1364746,-0.9335938,-0.2130127,0,0,0,0,0,0
8.10009,-0.3686016,1,0,0,0,0,0,0,0,0,0,0,0,0,0,1,0,0,0,0,0,0.09472656,-0.9257813,-0.1262207,0,0,0,0,0,0
8.11009,-0.4908059,1,0,0,0,0,0,0,0,0,0,0,0,0,0,1,0,0,-0.01799298,-0.0177623,0.008535132,0.09155273,-0.9580078,-0.1142578,0,0,0,0,0,0
8.12009,-0.5387272,0.9936524,0,0,0,0,0,0,0,0,0,0,0,0,0,1,0,0,0,0,0,0.06494141,-0.9379883,-0.05969238,0,0,0,0,0,0
8.130091,-0.6112997,0.9628969,0,0,0,0,0,0,0,0,0,0,0,0,0,1,0,0,0,0,0,0.0201416,-0.928833,-0.08422852,0,0,0,0,0,0
8.140091,-0.6899853,0.8894031,0,0,0,0,0,0,0,0,0,0,0,0,0,1,0,0,0,0,0,0.04370117,-1.003906,-0.1193848,0,0,0,0,0,0
8.150091,-0.7542298,0.8420238,0,0,0,0,0,0,0,0,0,0,0,0,0,1,0,0,0,0,0,0.0234375,-1.016846,-0.07739258,0,0,0,0,0,0
8.160091,-0.846974,0.7038234,0,0,0,0,0,0,0,0,0,0,0,0,0,0,0,0,0,0,0,0.02087402,-1.057617,-0.04943848,0,0,0,0,0,0
8.170092,-0.920023,0.5014718,0,0,0,0,0,0,0,0,0,0,0,0,0,0,0,0,0,0,0,0.02624512,-1.103149,-0.02819824,0,0,0,0,0,0
8.180092,-0.9567504,0.3740382,0,0,0,0,0,0,0,0,0,0,0,0,0,0,0,0,0,0,0,0.0526123,-1.119873,-0.05847168,0,0,0,0,0,0
8.190092,-0.9948004,0.216261,0,0,0,0,0,0,0,0,0,0,0,0,0,0,0,0,0,0,0,0.06408691,-1.026733,0,0,0,0,0,0,0
8.200092,-1,0.07454614,0,0,0,0,0,0,0,0,0,0,0,0,0,0,0,0,0,0,0,0.06994629,-1.019653,-0.04919434,0,0,0,0,0,0
8.210093,-1,-0.01176485,0,0,0,0,0,0,0,0,0,0,0,0,0,0,0,0,-0.06528223,0.007381736,-0.02122249,0.06201172,-1.024658,-0.07104492,0,0,0,0,0,0
8.220093,-1,-0.1927661,0,0,0,0,0,0,0,0,0,0,0,0,0,0,0,0,0,0,0,0.05688477,-1.016113,-0.02893066,0,0,0,0,0,0
8.230093,-0.9454572,-0.33346,0,0,0,0,0,0,0,0,0,0,0,0,0,0,0,0,0,0,0,0.05004883,-1.022827,-0.02148438,0,0,0,0,0,0
8.240093,-0.8547304,-0.4566368,0,0,0,0,0,0,0,0,0,0,0,0,0,0,0,0,0,0,0,0.04492188,-1.060059,-0.01403809,0,0,0,0,0,0
8.250093,-0.7326749,-0.5698583,0,0,0,0,0,0,0,0,0,0,0,0,0,0,0,0,-0.1057102,0.005248024,0.003748589,0.05236816,-1.065186,-0.02111816,0,0,0,0,0,0
8.260094,-0.6272349,-0.6272349,0,0,0,0,0,0,0,0,0,0,0,0,0,0,0,0,0,0,0,0.06762695,-1.055176,-0.0559082,0,0,0,0,0,0
8.270094,-0.4381222,-0.7124249,0,0,0,0,0,0,0,0,0,0,0,0,0,0,0,0,0,0,0,0.0703125,-1.056763,-0.07739258,0,0,0,0,0,0
8.280094,-0.3010183,-0.7811235,0,0,0,0,0,0,0,0,0,0,0,0,0,1,0,0,0,0,0,0.09301758,-1.011108,-0.1068115,0,0,0,0,0,0
8.290094,-0.1112362,-0.8630394,0,0,0,0,0,0,0,0,0,0,0,0,0,1,0,0,0,0,0,0.08239746,-0.9404297,-0.15271,0,0,0,0,0,0
8.300095,0.06621584,-0.9542872,0,0,0,0,0,0,0,0,0,0,0,0,0,1,0,0,-0.1067951,-0.01753008,-0.01061031,0.0736084,-0.9754639,-0.1374512,0,0,0,0,0,0
8.310095,0.1848525,-1,0,0,0,0,0,0,0,0,0,0,0,0,0,1,0,0,0,0,0,0.04125977,-0.9974365,-0.02368164,0,0,0,0,0,0
8.320095,0.3202776,-1,0.0255902,-0.02120331,0,0,0,0,0,0,0,0,0,0,0,1,0,0,0,0,0,0.07617188,-1.020996,-0.07531738,0,0,0,0,0,0
8.330095,0.4172379,-1,0.0383198,-0.02849421,0,0,0,0,0,0,0,0,0,0,0,1,0,0,-0.1197225,0.01591687,0.005305622,0.1229248,-0.9675293,-0.1485596,0,0,0,0,0,0
8.340096,0.4743927,-1,0.0383198,-0.02849421,0,0,0,0,0,0,0,0,0,0,0,1,0,0,0,0,0,0.1748047,-0.9005127,-0.2832031,0,0,0,0,0,0
8.350096,0.5568311,-1,0.04508467,-0.03188915,0,0,0,0,0,0,0,0,0,0,0,1,0,0,0,0,0,0.08520508,-0.8751221,-0.2781982,0,0,0,0,0,0
8.360096,0.6124081,-0.9806534,0.05207838,-0.03512263,0,0,0,0,0,0,0,0,0,0,0,1,0,0,-0.01374483,-0.02024238,0.005997742,0.08947754,-0.8939209,-0.2564697,0,0,0,0,0,0
8.370096,0.6531526,-0.965704,0.07241385,-0.05084377,0,0,0,0,0,0,0,0,0,0,0,1,0,0,0,0,0,0.08752441,-0.8903809,-0.2020264,0,0,0,0,0,0
8.380096,0.7086892,-0.9168916,0.09245497,-0.06707518,0,0,0,0,0,0,0,0,0,0,0,1,0,0,0,0,0,0.06298828,-0.868042,-0.1855469,0,0,0,0,0,0
8.390097,0.7554604,-0.8593862,0.1099989,-0.09339525,0,0,0,0,0,0,0,0,0,0,0,1,0,0,0.1102085,-0.01349492,0.01774332,0.1094971,-0.9360352,-0.2524414,0,0,0,0,0,0
8.400097,0.7872236,-0.8271842,0.1197378,-0.1197378,0,0,0,0,0,0,0,0,0,0,0,1,0,0,0,0,0,0.05969238,-0.9282227,-0.2231445,0,0,0,0,0,0
8.410097,0.8420238,-0.7542298,0.1265917,-0.1409229,0,0,0,0,0,0,0,0,0,0,0,0,0,0,0,0,0,0.06481934,-1.011597,-0.1219482,0,0,0,0,0,0
8.420097,0.8812595,-0.69783,0.1287792,-0.1482175,0,0,0,0,0,0,0,0,0,0,0,0,0,0,0,0,0,0.05053711,-0.9968262,-0.08666992,0,0,0,0,0,0
8.430098,0.9268799,-0.6006819,0.1287792,-0.1482175,0,0,0,0,0,0,0,0,0,0,0,0,0,0,0,0,0,0.05566406,-1.086426,-0.1258545,0,0,0,0,0,0
8.440098,0.9721088,-0.4801027,0.1153048,-0.1243483,0,0,0,0,0,0,0,0,0,0,0,0,0,0,0.07082477,-0.0004613992,0.01199638,0.02490234,-1.02063,-0.02954102,0,0,0,0,0,0
8.450098,1,-0.3843456,0.08103468,-0.06724153,0,0,0,0,0,0,0,0,0,0,0,0,0,0,0,0,0,0.02893066,-1.017822,-0.01403809,0,0,0,0,0,0
8.460098,1,-0.2006854,0,0,0,0,0,0,0,0,0,0,0,0,0,0,0,0,0,0,0,0.06225586,-1.039429,-0.09289551,0,0,0,0,0,0
8.470098,1,0.04314433,0,0,0,0,0,0,0,0,0,0,0,0,0,0,0,0,0.05397894,0.005074943,0.01061124,0.07861328,-1.027588,-0.09423828,0,0,0,0,0,0
8.480099,1,0.1927661,0,0,0,0,0,0,0,0,0,0,0,0,0,0,0,0,0,0,0,0.06628418,-1.0625,-0.05078125,0,0,0,0,0,0
8.490099,1,0.4172379,0,0,0,0,0,0,0,0,0,0,0,0,0,0,0,0,0.04397986,0.01624256,0.03148558,-0.003051758,-1.107544,0.001220703,0,0,0,0,0,0
8.500099,0.9679267,0.55367,0,0,0,0,0,0,0,0,0,0,0,0,0,0,0,0,0,0,0,-0.007080078,-1.131958,0.01452637,0,0,0,0,0,0
8.510099,0.8981643,0.6905887,0,0,0,0,0,0,0,0,0,0,0,0,0,0,0,0,0,0,0,0.04150391,-1.067261,-0.04309082,0,0,0,0,0,0
8.5201,0.8426419,0.7627706,0,0,0,0,0,0,0,0,0,0,0,0,0,0,0,0,0,0,0,0.04553223,-1.078003,-0.04003906,0,0,0,0,0,0
8.5301,0.810544,0.7945727,0,0,0,0,0,0,0,0,0,0,0,0,0,1,0,0,0,0,0,0.05041504,-1.043701,-0.02661133,0,0,0,0,0,0
8.5401,0.7554604,0.8593862,0,0,0,0,0,0,0,0,0,0,0,0,0,1,0,0,0,0,0,0.06530762,-0.9915771,-0.05737305,0,0,0,0,0,0
8.5501,0.6911871,0.9069334,0,0,0,0,0,0,0,0,0,0,0,0,0,1,0,0,-0.03248512,0.01374371,-0.01399359,0.09179688,-0.9799805,-0.1018066,0,0,0,0,0,0
8.560101,0.6430523,0.9386168,0,0,0,0,0,0,0,0,0,0,0,0,0,1,0,0,0,0,0,0.0904541,-0.9593506,-0.1114502,0,0,0,0,0,0
8.570101,0.5713281,0.9868394,0,0,0,0,0,0,0,0,0,0,0,0,0,1,0,0,0,0,0,0.0489502,-0.9528809,-0.1079102,0,0,0,0,0,0
8.580101,0.4825947,1,0,0,0,0,0,0,0,0,0,0,0,0,0,1,0,0,0.01660891,0.007151056,0.005536302,0.1015625,-0.9726563,-0.163208,0,0,0,0,0,0
8.590101,0.4253754,1,0,0,0,0,0,0,0,0,0,0,0,0,0,1,0,0,0,0,0,0.09362793,-0.9609375,-0.1729736,0,0,0,0,0,0
8.600101,0.336352,1,0,0,0,0,0,0,0,0,0,0,0,0,0,1,0,0,0,0,0,0.06811523,-0.9741211,-0.170166,0,0,0,0,0,0
8.610102,0.2244794,1,0,0,0,0,0,0,0,0,0,0,0,0,0,1,0,0,0.01924275,-0.01099586,-0.003998494,0.07116699,-0.9968262,-0.1362305,0,0,0,0,0,0
8.620102,0.1374799,1,0,0,0,0,0,0,0,0,0,0,0,0,0,1,0,0,0,0,0,0.06481934,-0.9857178,-0.1212158,0,0,0,0,0,0
8.630102,0,1,0,0,0,0,0,0,0,0,0,0,0,0,0,1,0,0,0,0,0,0.05505371,-0.9752197,-0.1435547,0,0,0,0,0,0
8.640102,-0.1690417,1,-0.05050793,0.005153871,0,0,0,0,0,0,0,0,0,0,0,1,0,0,0.05672864,-0.01349492,-0.01324501,0.06445313,-0.9437256,-0.1772461,0,0,0,0,0,0
8.650103,-0.2802319,1,-0.123435,-0.001898999,0,0,0,0,0,0,0,0,0,0,0,1,0,0,0,0,0,0.06848145,-0.9724121,-0.1723633,0,0,0,0,0,0
8.660103,-0.4253754,1,-0.2554716,-0.04669911,0,0,0,0,0,0,0,0,0,0,0,1,0,0,0,0,0,0.08203125,-0.9949951,-0.1297607,0,0,0,0,0,0
8.670103,-0.5149953,1,-0.3699483,-0.1043444,0,0,0,0,0,0,0,0,0,0,0,0,0,0,0,0,0,0.05737305,-1.011597,-0.06115723,0,0,0,0,0,0
8.680103,-0.6029587,0.962338,-0.5248892,-0.221933,0,0,0,0,0,0,0,0,0,0,0,0,0,0,0,0,0,0.04174805,-1.058594,0.0213623,0,0,0,0,0,0
8.690104,-0.6670833,0.922732,-0.6767019,-0.3327429,0,0,0,0,0,0,0,0,0,0,0,0,0,0,-0.004998118,-0.004498306,-0.002748965,0.04003906,-1.126099,0.01013184,0,0,0,0,0,0
8.700104,-0.7062927,0.8818683,-0.7804509,-0.4113707,0,0,0,0,0,0,0,0,0,0,0,0,0,0,-0.0432302,0.01199451,-0.01299405,0.03356934,-1.017944,0.01196289,0,0,0,0,0,0
8.710104,-0.7390295,0.8668616,-0.8547304,-0.4566368,0,0,0,0,0,0,0,0,0,0,0,0,0,0,0,0,0,0.03820801,-1.043823,-0.03088379,0,0,0,0,0,0
8.720104,-0.7700843,0.8259454,-0.9400869,-0.5354926,0,0,0,0,0,0,0,0,0,0,0,0,0,0,0,0,0,0.07958984,-1.065918,-0.0291748,0,0,0,0,0,0
8.730104,-0.785358,0.8013044,-0.9400869,-0.5354926,0,0,0,0,0,0,0,0,0,0,0,0,0,0,0,0,0,0.05041504,-1.052856,-0.03845215,0,0,0,0,0,0
8.740105,-0.8013044,0.785358,-0.9490002,-0.5360461,0,0,0,0,0,0,0,0,0,0,0,0,0,0,-0.04697848,0.01699222,0.001499313,0.03674316,-1.07666,-0.03405762,0,0,0,0,0,0
8.750105,-0.8327313,0.7450754,-0.9484507,-0.527799,0,0,0,0,0,0,0,0,0,0,0,0,0,0,0,0,0,0.06494141,-1.081787,-0.04602051,0,0,0,0,0,0
8.760105,-0.8401566,0.7286666,-0.9484507,-0.527799,0,0,0,0,0,0,0,0,0,0,0,0,0,0,0,0,0,0.04968262,-1.056641,-0.04736328,0,0,0,0,0,0
8.770105,-0.8569256,0.7214118,-0.9479036,-0.5195622,0,0,0,0,0,0,0,0,0,0,0,1,0,0,0,0,0,0.06262207,-0.9920654,-0.08959961,0,0,0,0,0,0
8.780106,-0.856306,0.7129246,-0.956296,-0.5118763,0,0,0,0,0,0,0,0,0,0,0,1,0,0,-0.1024614,0.005248024,-0.01299511,0.06555176,-0.9901123,-0.1300049,0,0,0,0,0,0
8.790106,-0.865021,0.7135427,-0.9557601,-0.5036578,0,0,0,0,0,0,0,0,0,0,0,1,0,0,0,0,0,0.06164551,-0.9912109,-0.1456299,0,0,0,0,0,0
8.800106,-0.8637865,0.696602,-0.9557601,-0.5036578,0,0,0,0,0,0,0,0,0,0,0,1,0,0,0,0,0,0.04602051,-0.9686279,-0.1577148,0,0,0,0,0,0
8.810106,-0.770876,0.614353,-0.9647085,-0.5041893,0,0,0,0,0,0,0,0,0,0,0,1,0,0,-0.04547917,-0.002998627,-0.0007496566,0.0916748,-0.9659424,-0.2011719,0,0,0,0,0,0
8.820107,-0.6762933,0.5158169,-0.9647085,-0.5041893,0,0,0,0,0,0,0,0,0,0,0,1,0,0,0,0,0,0.06982422,-0.9759521,-0.1877441,0,0,0,0,0,0
8.830107,-0.4910118,0.3691548,-0.9557601,-0.5036578,0,0,0,0,0,0,0,0,0,0,0,1,0,0,0,0,0,0.06860352,-0.9385986,-0.1638184,0,0,0,0,0,0
8.840107,-0.236068,0.1894373,-0.857722,-0.4974004,0,0,0,0,0,0,0,0,0,0,0,1,0,0,0,0,0,0.07971191,-0.90625,-0.2355957,0,0,0,0,0,0
8.850107,0,0,-0.721216,-0.4388351,0,0,0,0,0,0,0,0,0,0,0,1,0,0,0.1131982,-0.008995879,0.02573821,0.04504395,-0.8623047,-0.2456055,0,0,0,0,0,0
8.860107,0,0,-0.6131827,-0.3976397,0,0,0,0,0,0,0,0,0,0,0,1,0,0,0,0,0,0.03796387,-0.9259033,-0.2017822,0,0,0,0,0,0
8.870108,0,0,-0.4414116,-0.3093357,0,0,0,0,0,0,0,0,0,0,0,0,0,0,0,0,0,0.102417,-0.9747314,-0.1226807,0,0,0,0,0,0
8.880108,0.0775399,0.004229449,-0.3079133,-0.2380773,0,0,0,0,0,0,0,0,0,0,0,0,0,0,0,0,0,0.05090332,-0.9959717,-0.04394531,0,0,0,0,0,0
8.890108,0.3752343,-0.06621782,-0.1197378,-0.1197378,0,0,0,0,0,0,0,0,0,0,0,0,0,0,0,0,0,0.01867676,-1.115234,-0.001953125,0,0,0,0,0,0
8.900108,0.7662332,-0.2076001,0,0,0,0,0,0,0,0,0,0,0,0,0,0,0,0,0,0,0,-0.0144043,-1.069092,0.03234863,0,0,0,0,0,0
8.910109,0.9984186,-0.3038665,0,0,0,0,0,0,0,0,0,0,0,0,0,0,0,0,0,0,0,-0.03210449,-1.03186,-0.04370117,0,0,0,0,0,0
8.920109,1,-0.3283107,0,0,0,0,0,0,0,0,0,0,0,0,0,0,0,0,0,0,0,0.0859375,-1.088257,-0.09851074,0,0,0,0,0,0
8.930109,1,-0.3283107,0,0,0,0,0,0,0,0,0,0,0,0,0,0,0,0,-0.07047346,-0.0124953,-0.0297388,0.08996582,-1.036987,-0.0748291,0,0,0,0,0,0
8.940109,1,-0.3283107,0,0,0,0,0,0,0,0,0,0,0,0,0,0,0,0,0,0,0,0.07189941,-1.064819,-0.03857422,0,0,0,0,0,0
8.950109,1,-0.3444016,0,0,0,0,0,0,0,0,0,0,0,0,0,0,0,0,0,0,0,0.09667969,-1.051758,-0.01623535,0,0,0,0,0,0
8.96011,1,-0.3605264,0,0,0,0,0,0,0,0,0,0,0,0,0,0,0,0,0,0,0,0.07189941,-1.071777,-0.04980469,0,0,0,0,0,0
8.97011,1,-0.3766855,0,0,0,0,0,0,0,0,0,0,0,0,0,0,0,0,0,0,0,0.06555176,-1.043457,-0.09130859,0,0,0,0,0,0
8.98011,1,-0.4009901,0,0,0,0,0,0,0,0,0,0,0,0,0,0,0,0,0,0,0,0.05749512,-1.023926,-0.07531738,0,0,0,0,0,0
8.99011,0.9971008,-0.448894,0,0,0,0,0,0,0,0,0,0,0,0,0,1,0,0,0,0,0,0.06555176,-0.9957275,-0.08618164,0,0,0,0,0,0
9.000111,0.965771,-0.520642,0,0,0,0,0,0,0,0,0,0,0,0,0,1,0,0,-0.1067011,0.004997711,-0.01349382,0.06787109,-0.9180908,-0.1553955,0,0,0,0,0,0
9.010111,0.9345874,-0.5846143,0,0,0,0,0,0,0,0,0,0,0,0,0,1,0,0,0,0,0,0.0670166,-0.9276123,-0.1776123,0,0,0,0,0,0
9.020111,0.8725189,-0.6972183,0,0,0,0,0,0,0,0,0,0,0,0,0,1,0,0,0,0,0,0.0447998,-0.939209,-0.1206055,0,0,0,0,0,0
9.030111,0.7859832,-0.8099219,0,0,0,0,0,0,0,0,0,0,0,0,0,1,0,0,-0.01453279,-0.01568619,-0.01822366,0.09289551,-0.9782715,-0.1849365,0,0,0,0,0,0
9.040112,0.7226405,-0.8743551,0,0,0,0,0,0,0,0,0,0,0,0,0,1,0,0,0,0,0,0.102417,-0.9709473,-0.2279053,0,0,0,0,0,0
9.050112,0.6185194,-0.9457361,0,0,0,0,0,0,0,0,0,0,0,0,0,1,0,0,0,0,0,0.1040039,-0.9746094,-0.208252,0,0,0,0,0,0
9.060112,0.5149953,-1,0,0,0,0,0,0,0,0,0,0,0,0,0,1,0,0,-0.001383953,-0.02606445,-0.01430085,0.09655762,-0.9937744,-0.1549072,0,0,0,0,0,0
9.070112,0.4580168,-1,0,0,0,0,0,0,0,0,0,0,0,0,0,1,0,0,0,0,0,0.09753418,-0.9892578,-0.1674805,0,0,0,0,0,0
9.080112,0.3847782,-1,0,0,0,0,0,0,0,0,0,0,0,0,0,1,0,0,0,0,0,0.08569336,-0.9691162,-0.1618652,0,0,0,0,0,0
9.090113,0.3202776,-1,0,0,0,0,0,0,0,0,0,0,0,0,0,1,0,0,0.01874294,-0.01774332,-0.01874294,0.07128906,-0.9449463,-0.1650391,0,0,0,0,0,0
9.100113,0.2802319,-1,0,0,0,0,0,0,0,0,0,0,0,0,0,1,0,0,0,0,0,0.07336426,-0.9384766,-0.1933594,0,0,0,0,0,0
9.110113,0.2244794,-1,0,0,0,0,0,0,0,0,0,0,0,0,0,1,0,0,0,0,0,0.09680176,-0.9499512,-0.2037354,0,0,0,0,0,0
9.120113,0.1690417,-1,0,0,0,0,0,0,0,0,0,0,0,0,0,0,0,0,0,0,0,0.06884766,-1.009766,-0.1616211,0,0,0,0,0,0
9.130114,0.1374799,-1,0,0,0,0,0,0,0,0,0,0,0,0,0,0,0,0,0,0,0,0.04956055,-1.035034,-0.1004639,0,0,0,0,0,0
9.140114,0.09026043,-1,0,0,0,0,0,0,0,0,0,0,0,0,0,0,0,0,0,0,0,0.04333496,-1.067383,-0.05334473,0,0,0,0,0,0
9.150114,0.035298,-1,0,0,0,0,0,0,0,0,0,0,0,0,0,0,0,0,-0.00674691,-0.01224439,-0.006497024,0.02929688,-1.005005,-0.04748535,0,0,0,0,0,0
9.160114,0,-1,0,0,0,0,0,0,0,0,0,0,0,0,0,0,0,0,0,0,0,0.03173828,-0.9876709,-0.05651855,0,0,0,0,0,0
9.170115,-0.07454614,-1,0,0,0,0,0,0,0,0,0,0,0,0,0,0,0,0,0,0,0,0.07336426,-1.034302,-0.1356201,0,0,0,0,0,0
9.180115,-0.1690417,-1,0,0,0,0,0,0,0,0,0,0,0,0,0,0,0,0,0,0,0,0.07739258,-0.9898682,-0.1357422,0,0,0,0,0,0
9.190115,-0.2562958,-1,0,0,0,0,0,0,0,0,0,0,0,0,0,0,0,0,0,0,0,0.07495117,-0.9862061,-0.1175537,0,0,0,0,0,0
9.200115,-0.4575411,-1,0,0,0,0,0,0,0,0,0,0,0,0,0,0,0,0,0,0,0,0.09350586,-1.019775,-0.08483887,0,0,0,0,0,0
9.210115,-0.7031947,-0.8382716,0,0,0,0,0,0,0,0,0,0,0,0,0,0,0,0,0.01522483,0.00599766,0.02237589,0.1140137,-1.070313,0.002929688,0,0,0,0,0,0
9.220116,-0.8606791,-0.6544335,0,0,0,0,0,0,0,0,0,0,0,0,0,0,0,0,0,0,0,0.08508301,-1.179443,0.05957031,0,0,0,0,0,0
9.230116,-0.987129,-0.4321167,0,0,0,0,0,0,0,0,0,0,0,0,0,0,0,0,0,0,0,0.0880127,-1.058594,-0.04614258,0,0,0,0,0,0
9.240116,-1,-0.336352,0,0,0,0,0,0,0,0,0,0,0,0,0,1,0,0,-0.07897027,0.05173052,0.03148814,0.02661133,-0.9499512,-0.1677246,0,0,0,0,0,0
9.250116,-1,-0.3042357,0,0,0,0,0,0,0,0,0,0,0,0,0,1,0,0,-0.06596979,0.03523386,0.001499313,0.02709961,-0.914917,-0.2493896,0,0,0,0,0,0
9.260117,-1,-0.2882255,0,0,0,0,0,0,0,0,0,0,0,0,0,1,0,0,0,0,0,0.03173828,-0.9848633,-0.1914063,0,0,0,0,0,0
9.270117,-1,-0.2642672,0,0,0,0,0,0,0,0,0,0,0,0,0,1,0,0,0,0,0,0.03479004,-0.925293,-0.1658936,0,0,0,0,0,0
9.280117,-1,-0.2403741,0,0,0,0,0,0,0,0,0,0,0,0,0,1,0,0,0.008995697,-0.006458449,-0.002767907,0.0859375,-0.9447021,-0.2194824,0,0,0,0,0,0
9.290117,-1,-0.2324234,0,0,0,0,0,0,0,0,0,0,0,0,0,1,0,0,0,0,0,0.06982422,-0.9473877,-0.2122803,0,0,0,0,0,0
9.300117,-1,-0.2006854,0,0,0,0,0,0,0,0,0,0,0,0,0,1,0,0,0,0,0,0.0814209,-0.9627686,-0.144165,0,0,0,0,0,0
9.310118,-1,-0.1690417,0,0,0,0,0,0,0,0,0,0,0,0,0,1,0,0,0.04973128,-0.005248024,0.004248401,0.08459473,-0.9647217,-0.1489258,0,0,0,0,0,0
9.320118,-1,-0.1374799,0,0,0,0,0,0,0,0,0,0,0,0,0,1,0,0,0,0,0,0.09228516,-0.9415283,-0.1810303,0,0,0,0,0,0
9.330118,-1,-0.1217254,0,0,0,0,0,0,0,0,0,0,0,0,0,1,0,0,0,0,0,0.07324219,-0.9371338,-0.1905518,0,0,0,0,0,0
9.340118,-1,-0.1217254,0,0,0,0,0,0,0,0,0,0,0,0,0,1,0,0,0.111458,-0.02199172,0.003748589,0.0802002,-0.9857178,-0.1571045,0,0,0,0,0,0
9.350119,-1,-0.1217254,0,0,0,0,0,0,0,0,0,0,0,0,0,0,0,0,0,0,0,0.06665039,-0.9998779,-0.1414795,0,0,0,0,0,0
9.360119,-1,-0.113854,0,0,0,0,0,0,0,0,0,0,0,0,0,0,0,0,0,0,0,0.0579834,-1.046387,-0.06896973,0,0,0,0,0,0
9.370119,-1,-0.1217254,0,0,0,0,0,0,0,0,0,0,0,0,0,0,0,0,0.06022242,-0.01099496,-0.001749199,0.05187988,-1.086182,-0.0456543,0,0,0,0,0,0
9.380119,-1,-0.1217254,0,0,0,0,0,0,0,0,0,0,0,0,0,0,0,0,0,0,0,0.04394531,-1.099243,-0.04931641,0,0,0,0,0,0
9.39012,-1,-0.1217254,0,0,0,0,0,0,0,0,0,0,0,0,0,0,0,0,0,0,0,0.03601074,-1.040161,-0.03466797,0,0,0,0,0,0
9.40012,-1,-0.113854,0,0,0,0,0,0,0,0,0,0,0,0,0,0,0,0,0,0,0,0.05200195,-1.060791,-0.05285645,0,0,0,0,0,0
9.41012,-1,-0.1217254,0,0,0,0,0,0,0,0,0,0,0,0,0,0,0,0,0,0,0,0.05334473,-1.022461,-0.08728027,0,0,0,0,0,0
9.42012,-1,-0.113854,0,0,0,0,0,0,0,0,0,0,0,0,0,0,0,0,0,0,0,0.0625,-1.003174,-0.09277344,0,0,0,0,0,0
9.43012,-1,-0.113854,0,0,0,0,0,0,0,0,0,0,0,0,0,0,0,0,0,0,0,0.06713867,-1.01123,-0.07788086,0,0,0,0,0,0
9.440121,-1,-0.1217254,0,0,0,0,0,0,0,0,0,0,0,0,0,0,0,0,0,0,0,0.06201172,-1.004883,-0.0612793,0,0,0,0,0,0
9.450121,-1,-0.1217254,0,0,0,0,0,0,0,0,0,0,0,0,0,0,0,0,0,0,0,0.06750488,-1.012939,-0.03613281,0,0,0,0,0,0
9.460121,-1,-0.113854,0,0,0,0,0,0,0,0,0,0,0,0,0,0,0,0,0,0,0,0.01367188,-1.049438,-0.01953125,0,0,0,0,0,0
9.470121,-1,-0.1217254,0,0,0,0,0,0,0,0,0,0,0,0,0,0,0,0,0,0,0,0.03076172,-1.107056,-0.01220703,0,0,0,0,0,0
9.480122,-1,-0.113854,0,0,0,0,0,0,0,0,0,0,0,0,0,1,0,0,0,0,0,0.04736328,-1.101563,-0.04638672,0,0,0,0,0,0
9.490122,-1,-0.09026043,0.03222121,0.003580134,0,0,0,0,0,0,0,0,0,0,0,1,0,0,0,0,0,0.06018066,-0.9985352,-0.1351318,0,0,0,0,0,0
9.500122,-1,-0.05884144,0.1449196,0.02730369,0,0,0,0,0,0,0,0,0,0,0,1,0,0,0,0,0,0.0802002,-0.9793701,-0.2287598,0,0,0,0,0,0
9.510122,-1,-0.05884144,0.2561666,0.05233511,0,0,0,0,0,0,0,0,0,0,0,1,0,0,0,0,0,0.05371094,-0.9324951,-0.1064453,0,0,0,0,0,0
9.520123,-1,-0.05884144,0.3308791,0.0758897,0,0,0,0,0,0,0,0,0,0,0,1,0,0,0,0,0,0.09326172,-0.9567871,-0.1799316,0,0,0,0,0,0
9.530123,-1,-0.05884144,0.4599454,0.1040752,0,0,0,0,0,0,0,0,0,0,0,1,0,0,-0.03323749,-0.02024238,0,0.1018066,-0.9533691,-0.1998291,0,0,0,0,0,0
9.540123,-1,-0.06669273,0.542066,0.1084132,0,0,0,0,0,0,0,0,0,0,0,1,0,0,0,0,0,0.1101074,-0.9581299,-0.1851807,0,0,0,0,0,0
9.550123,-1,-0.08240198,0.6886505,0.1141613,0,0,0,0,0,0,0,0,0,0,0,1,0,0,0,0,0,0.09436035,-0.9765625,-0.1506348,0,0,0,0,0,0
9.560123,-1,-0.113854,0.8444397,0.1031668,0,0,0,0,0,0,0,0,0,0,0,1,0,0,-0.007996337,-0.009245765,0.01274416,0.08776855,-0.9847412,-0.1650391,0,0,0,0,0,0
9.570124,-1,-0.1296006,0.944972,0.0583316,0,0,0,0,0,0,0,0,0,0,0,1,0,0,0,0,0,0.08435059,-0.9884033,-0.1496582,0,0,0,0,0,0
9.580124,-1,-0.1690417,1,-0.01960851,0,0,0,0,0,0,0,0,0,0,0,1,0,0,0,0,0,0.01123047,-0.9447021,-0.1414795,0,0,0,0,0,0
9.590124,-1,-0.1927661,1,-0.1296006,0,0,0,0,0,0,0,0,0,0,0,1,0,0,0.03598596,-0.003921547,0.001614755,0.0748291,-0.9575195,-0.1599121,0,0,0,0,0,0
9.600124,-1,-0.2165419,1,-0.1690417,0,0,0,0,0,0,0,0,0,0,0,1,0,0,0,0,0,0.05065918,-0.9743652,-0.1627197,0,0,0,0,0,0
9.610125,-1,-0.2642672,1,-0.2324234,0,0,0,0,0,0,0,0,0,0,0,1,0,0,0,0,0,0.0447998,-0.9621582,-0.1794434,0,0,0,0,0,0
9.620125,-1,-0.3042357,1,-0.2882255,0,0,0,0,0,0,0,0,0,0,0,0,0,0,0.04198419,-0.02249153,-0.007996988,0.04980469,-1.031616,-0.08935547,0,0,0,0,0,0
