Timestamp, Left Stick X, LeftStickY, Right Stick X, Right Stick Y, D-Pad Up, D-Pad Right,D-Pad Down, D-Pad Left, Button North, Button East, Button South, Button West, L1, R1, L2, R2, L3, R3,Gyroscope X, Gyroscope Y, Gyroscope Z, Accelerometer X, Accelerometer Y, Accelerometer Z,Touch 1, Touch 2, Touch 1 Pos X, Touch 1 Pos Y, Touch 2 Pos X, Touch 2 Pos Y
0,0.3686016,1,0.04218405,0.2009946,0,0,0,0,0,0,0,0,0,0,0,1,0,0,0,0,0,-0.02160645,-0.8933105,0.03747559,0,0,0,0,0,0
0.01,0.2165419,1,0,0,0,0,0,0,0,0,0,0,0,0,0,1,0,0,0,0,0,0.06335449,-0.940918,0.1195068,0,0,0,0,0,0
0.02,0.09812176,1,0,0,0,0,0,0,0,0,0,0,0,0,0,0,0,0,0,0,0,0.007568359,-1.089233,0.1166992,0,0,0,0,0,0
0.03,0.04314433,1,0,0,0,0,0,0,0,0,0,0,0,0,0,0,0,0,0.05697777,0.06482086,0.06251407,-0.2315674,-1.126465,0.1025391,0,0,0,0,0,0
0.04,0.003921574,1,0,0,0,0,0,0,0,0,0,0,0,0,0,0,0,0,0,0,0,-0.2374268,-1.02832,-0.04748535,0,0,0,0,0,0
0.05,-0.06669273,1,0,0,0,0,0,0,0,0,0,0,0,0,0,0,0,0,0,0,0,-0.2043457,-1.068359,0.05505371,0,0,0,0,0,0
0.05999999,-0.09812176,1,0,0,0,0,0,0,0,0,0,0,0,0,0,0,0,0,0,0,0,-0.1811523,-0.9954834,0.1647949,0,0,0,0,0,0
0.06999999,-0.113854,1,0,0,0,0,0,0,0,0,0,0,0,0,0,0,0,0,0,0,0,-0.03015137,-1.216553,0.1843262,0,0,0,0,0,0
0.07999999,-0.113854,1,0,0,0,0,0,0,0,0,0,0,0,0,0,1,0,0,0,0,0,-0.08166504,-1.226685,0.04125977,0,0,0,0,0,0
0.08999999,-0.09812176,1,0,0,0,0,0,0,0,0,0,0,0,0,0,1,0,0,-0.2024238,0.01299511,-0.01774332,-0.137085,-1.012207,-0.00769043,0,0,0,0,0,0
0.09999999,-0.06669273,1,0,0,0,0,0,0,0,0,0,0,0,0,0,1,0,0,0,0,0,-0.1676025,-0.8433838,-0.07751465,0,0,0,0,0,0
0.11,-0.01176485,1,0.0263185,0.08514809,0,0,0,0,0,0,0,0,0,0,0,1,0,0,0,0,0,0.002563477,-0.854248,-0.25354,0,0,0,0,0,0
0.12,0.05884144,1,0.03503053,0.1380615,0,0,0,0,0,0,0,0,0,0,0,1,0,0,0.01799322,-0.06597516,-0.1099586,0.06140137,-0.9177246,-0.1588135,0,0,0,0,0,0
0.13,0.1059862,1,0.03951317,0.1393359,0,0,0,0,0,0,0,0,0,0,0,1,0,0,0,0,0,0.1082764,-0.9884033,-0.1743164,0,0,0,0,0,0
0.14,0.1927661,1,0.01840736,0.05089094,0,0,0,0,0,0,0,0,0,0,0,1,0,0,0,0,0,0.07849121,-0.833252,-0.01696777,0,0,0,0,0,0
0.15,0.2722459,1,0,0,0,0,0,0,0,0,0,0,0,0,0,1,0,0,0.1589402,0.04973128,0.02274144,0.09338379,-0.9559326,0.137207,0,0,0,0,0,0
0.16,0.3444016,1,0,0,0,0,0,0,0,0,0,0,0,0,0,1,0,0,0,0,0,0.04003906,-1.001831,0.06835938,0,0,0,0,0,0
0.17,0.433522,1,0,0,0,0,0,0,0,0,0,0,0,0,0,0,0,0,0,0,0,-0.1744385,-1.019409,0.07470703,0,0,0,0,0,0
0.18,0.4743927,1,0,0,0,0,0,0,0,0,0,0,0,0,0,0,0,0,0.1026523,0.03137238,0.09850004,-0.1784668,-1.046875,-0.1988525,0,0,0,0,0,0
0.19,0.4825947,1,0,0,0,0,0,0,0,0,0,0,0,0,0,0,0,0,0,0,0,-0.2258301,-1.10022,-0.009277344,0,0,0,0,0,0
0.2,0.4825947,1,0,0,0,0,0,0,0,0,0,0,0,0,0,0,0,0,0,0,0,-0.401001,-1.188965,0.487915,0,0,0,0,0,0
0.21,0.5072563,1,0,0,0,0,0,0,0,0,0,0,0,0,0,0,0,0,0,0,0,-0.3292236,-1.291382,0.2811279,0,0,0,0,0,0
0.22,0.5723898,1,0,0,0,0,0,0,0,0,0,0,0,0,0,1,0,0,-0.3471722,0.0189157,-0.01799298,-0.2005615,-1.022827,-0.07849121,0,0,0,0,0,0
0.23,0.6207611,0.981203,0,0,0,0,0,0,0,0,0,0,0,0,0,1,0,0,0,0,0,0.005126953,-0.7745361,-0.09509277,0,0,0,0,0,0
0.24,0.7165664,0.9087183,0,0,0,0,0,0,0,0,0,0,0,0,0,1,0,0,0,0,0,-0.02709961,-0.7947998,-0.1575928,0,0,0,0,0,0
0.25,0.8111632,0.8031714,0,0,0,0,0,0,0,0,0,0,0,0,0,1,0,0,-0.1107083,-0.01899285,-0.04823184,0.09350586,-0.8349609,-0.3304443,0,0,0,0,0,0
0.26,0.8824759,0.7147655,0,0,0,0,0,0,0,0,0,0,0,0,0,1,0,0,0,0,0,0.07519531,-0.840332,-0.256958,0,0,0,0,0,0
0.27,0.9690174,0.5702448,0,0,0,0,0,0,0,0,0,0,0,0,0,1,0,0,0,0,0,0.04248047,-0.9494629,-0.1689453,0,0,0,0,0,0
0.28,1,0.5062566,0,0,0,0,0,0,0,0,0,0,0,0,0,1,0,0,0,0,0,-0.008056641,-0.9069824,-0.02722168,0,0,0,0,0,0
0.29,1,0.4498426,-0.02616126,-0.2994011,0,0,0,0,0,0,0,0,0,0,0,1,0,0,0,0,0,0.08215332,-0.9998779,-0.03234863,0,0,0,0,0,0
0.3,1,0.433522,-0.03453135,-0.8709575,0,0,0,0,0,0,0,0,0,0,0,0,0,0,0,0,0,-0.03039551,-1.019165,-0.03356934,0,0,0,0,0,0
0.31,1,0.433522,0.02745281,-1,0,0,0,0,0,0,0,0,0,0,0,0,0,0,-0.003248777,0.1064599,0.06297629,-0.3156738,-1.112671,0.1662598,0,0,0,0,0,0
0.32,1,0.433522,0.09026043,-1,0,0,0,0,0,0,0,0,0,0,0,0,0,0,0,0,0,-0.3609619,-1.118164,-0.05664063,0,0,0,0,0,0
0.33,1,0.433522,0.1296006,-1,0,0,0,0,0,0,0,0,0,0,0,0,0,0,-0.05836185,0.05098011,0.00599766,-0.21875,-1.103027,-0.08581543,0,0,0,0,0,0
0.3399999,1,0.433522,0.1453634,-1,0,0,0,0,0,0,0,0,0,0,0,0,0,0,-0.05797817,0.03673617,-0.002748965,-0.217041,-1.054321,0.05712891,0,0,0,0,0,0
0.3499999,1,0.433522,0.1611441,-1,0,0,0,0,0,0,0,0,0,0,0,0,0,0,0,0,0,-0.1340332,-1.085083,-0.04760742,0,0,0,0,0,0
0.3599999,1,0.433522,0.1690417,-1,0,0,0,0,0,0,0,0,0,0,0,1,0,0,-0.1002123,0.004248401,0.0167437,-0.07226563,-0.9394531,-0.1022949,0,0,0,0,0,0
0.3699999,1,0.433522,0.1848525,-1,0,0,0,0,0,0,0,0,0,0,0,1,0,0,0,0,0,-0.1097412,-1.005615,-0.03515625,0,0,0,0,0,0
0.3799999,1,0.4580168,0.2244794,-1,0,0,0,0,0,0,0,0,0,0,0,1,0,0,0,0,0,-0.1298828,-0.9530029,-0.07775879,0,0,0,0,0,0
0.3899999,1,0.4662001,0.2484409,-0.6785774,0,0,0,0,0,0,0,0,0,0,0,1,0,0,-0.04636653,-0.03483257,-0.04429041,-0.07836914,-0.8867188,-0.208252,0,0,0,0,0,0
0.3999999,1,0.4743927,0.2398743,-0.483225,0,0,0,0,0,0,0,0,0,0,0,1,0,0,0,0,0,0.07397461,-0.7939453,-0.2683105,0,0,0,0,0,0
0.4099999,1,0.4743927,0.2115599,-0.3189186,0,0,0,0,0,0,0,0,0,0,0,1,0,0,0,0,0,0.07006836,-0.9050293,-0.1634521,0,0,0,0,0,0
0.4199999,1,0.4743927,0.180497,-0.2967493,0,0,0,0,0,0,0,0,0,0,0,1,0,0,0.1125715,0.006459019,-0.01014989,0.03222656,-0.9147949,-0.01977539,0,0,0,0,0,0
0.4299999,1,0.4743927,0.1514401,-0.3245144,0,0,0,0,0,0,0,0,0,0,0,1,0,0,0,0,0,0.0411377,-0.9819336,0.003051758,0,0,0,0,0,0
0.4399998,1,0.4662001,0.114572,-0.5242536,0,0,0,0,0,0,0,0,0,0,0,0,0,0,0,0,0,-0.02709961,-1.053589,-0.02575684,0,0,0,0,0,0
0.4499998,1,0.4662001,0.08624594,-0.7612141,0,0,0,0,0,0,0,0,0,0,0,0,0,0,0.1289514,0.06097704,0.05647873,-0.1237793,-1.127319,-0.007446289,0,0,0,0,0,0
0.4599998,1,0.4662001,0.08104495,-0.899213,0,0,0,0,0,0,0,0,0,0,0,0,0,0,0,0,0,-0.2398682,-1.05896,0.06140137,0,0,0,0,0,0
0.4699998,1,0.4662001,0.08228827,-0.9913776,0,0,0,0,0,0,0,0,0,0,0,0,0,0,0,0,0,-0.28479,-1.121216,0.0904541,0,0,0,0,0,0
0.4799998,1,0.4580168,0.08240198,-1,0,0,0,0,0,0,0,0,0,0,0,0,0,0,0,0,0,-0.1452637,-1.086304,0.08850098,0,0,0,0,0,0
0.4899998,1,0.4580168,0.06669273,-1,0,0,0,0,0,0,0,0,0,0,0,0,0,0,0,0,0,-0.1813965,-1.146606,0.03271484,0,0,0,0,0,0
0.4999998,1,0.4580168,0.05099206,-1,0,0,0,0,0,0,0,0,0,0,0,1,0,0,-0.1257027,-0.004998118,0.004248401,-0.145752,-1.179932,0.02575684,0,0,0,0,0,0
0.5099998,1,0.4662001,0.035298,-1,0,0,0,0,0,0,0,0,0,0,0,1,0,0,0,0,0,-0.1793213,-1.072021,0.06408691,0,0,0,0,0,0
0.5199998,1,0.5557991,0.02708533,-0.9170319,0,0,0,0,0,0,0,0,0,0,0,1,0,0,0,0,0,-0.217041,-0.7420654,0.0447998,0,0,0,0,0,0
0.5299998,0.9468793,0.6352481,0,-0.8062284,0,0,0,0,0,0,0,0,0,0,0,1,0,0,-0.06643562,-0.05028807,-0.03898479,0.03686523,-0.8294678,-0.3510742,0,0,0,0,0,0
0.5399998,0.91571,0.691781,-0.01118077,-0.7416579,0,0,0,0,0,0,0,0,0,0,0,1,0,0,0,0,0,-0.02294922,-0.8481445,-0.3891602,0,0,0,0,0,0
0.5499998,0.8749644,0.7311347,-0.03321634,-0.7049246,0,0,0,0,0,0,0,0,0,0,0,1,0,0,0,0,0,-0.004760742,-0.9002686,-0.2388916,0,0,0,0,0,0
0.5599998,0.8345971,0.7707045,-0.06982027,-0.6871784,0,0,0,0,0,0,0,0,0,0,0,1,0,0,0,0,0,0.02111816,-0.9327393,-0.08825684,0,0,0,0,0,0
0.5699998,0.810544,0.7945727,-0.0990823,-0.6788972,0,0,0,0,0,0,0,0,0,0,0,1,0,0,0,0,0,-0.01989746,-0.8876953,0.0423584,0,0,0,0,0,0
0.5799997,0.771321,0.8432577,-0.1659034,-0.6820471,0,0,0,0,0,0,0,0,0,0,0,1,0,0,0,0,0,-0.01672363,-0.9615479,0.0144043,0,0,0,0,0,0
0.5899997,0.7396386,0.8755721,-0.2175117,-0.6672817,0,0,0,0,0,0,0,0,0,0,0,0,0,0,0.1759338,0.03523673,0.03873542,-0.07617188,-1.062866,0.02502441,0,0,0,0,0,0
0.5999997,0.7159706,0.8999631,-0.2460151,-0.6425769,0,0,0,0,0,0,0,0,0,0,0,0,0,0,0,0,0,-0.1168213,-1.088989,0.04858398,0,0,0,0,0,0
0.6099997,0.6850963,0.9415066,-0.26239,-0.5643181,0,0,0,0,0,0,0,0,0,0,0,0,0,0,0,0,0,-0.1650391,-1.132935,0.02355957,0,0,0,0,0,0
0.6199997,0.6615523,0.9662672,-0.2556584,-0.4938061,0,0,0,0,0,0,0,0,0,0,0,0,0,0,0,0,0,-0.1473389,-1.134521,0.1065674,0,0,0,0,0,0
0.6299997,0.6296722,0.9906307,-0.2918309,-0.4222964,0,0,0,0,0,0,0,0,0,0,0,0,0,0,0,0,0,-0.1226807,-1.220825,0.1202393,0,0,0,0,0,0
0.6399997,0.6213085,0.9900852,-0.3120595,-0.3523253,0,0,0,0,0,0,0,0,0,0,0,1,0,0,0,0,0,-0.1794434,-1.141968,0.07434082,0,0,0,0,0,0
0.6499997,0.6213085,0.9900852,-0.3215154,-0.2695533,0,0,0,0,0,0,0,0,0,0,0,1,0,0,-0.2594023,0.0297388,-0.0252405,-0.175293,-1.030762,0.1278076,0,0,0,0,0,0
0.6599997,0.6380451,0.991177,-0.321606,-0.2260795,0,0,0,0,0,0,0,0,0,0,0,1,0,0,0,0,0,-0.2041016,-0.7598877,0.2036133,0,0,0,0,0,0
0.6699997,0.710439,0.9432381,-0.3610292,-0.2179185,0,0,0,0,0,0,0,0,0,0,0,1,0,0,-0.1817752,-0.009457849,-0.07843094,-0.04626465,-0.8618164,-0.206665,0,0,0,0,0,0
0.6799996,0.77375,0.8779858,-0.3780855,-0.2202759,0,0,0,0,0,0,0,0,0,0,0,1,0,0,0,0,0,-0.0637207,-0.8652344,-0.4445801,0,0,0,0,0,0
0.6899996,0.8761782,0.7481521,-0.3780855,-0.2202759,0,0,0,0,0,0,0,0,0,0,0,1,0,0,0,0,0,-0.1651611,-0.8398438,-0.3118896,0,0,0,0,0,0
0.6999996,0.9779255,0.5707892,-0.3792429,-0.2275457,0,0,0,0,0,0,0,0,0,0,0,1,0,0,0.06822432,-0.06647497,0.009746331,0.01086426,-0.8372803,-0.1801758,0,0,0,0,0,0
0.7099996,1,0.4662001,-0.3839292,-0.2570657,0,0,0,0,0,0,0,0,0,0,0,1,0,0,0,0,0,0.04455566,-0.9351807,-0.02709961,0,0,0,0,0,0
0.7199996,1,0.3847782,-0.3945131,-0.3259021,0,0,0,0,0,0,0,0,0,0,0,1,0,0,0,0,0,0.02514648,-1.01001,0.05957031,0,0,0,0,0,0
0.7299996,1,0.3686016,-0.4057816,-0.4057816,0,0,0,0,0,0,0,0,0,0,0,1,0,0,0.1589402,0.0509808,0.0889665,-0.04016113,-0.9936523,-0.08984375,0,0,0,0,0,0
0.7399996,1,0.3686016,-0.4131345,-0.4634291,0,0,0,0,0,0,0,0,0,0,0,0,0,0,0,0,0,-0.09851074,-1.052612,-0.03771973,0,0,0,0,0,0
0.7499996,1,0.3686016,-0.4180732,-0.5053234,0,0,0,0,0,0,0,0,0,0,0,0,0,0,0,0,0,-0.217041,-1.103882,0.01879883,0,0,0,0,0,0
0.7599996,1,0.3686016,-0.4180732,-0.5053234,0,0,0,0,0,0,0,0,0,0,0,0,0,0,0.05273015,0.05972751,0.0124953,-0.2144775,-1.090088,-0.06506348,0,0,0,0,0,0
0.7699996,1,0.3686016,-0.417107,-0.4969014,0,0,0,0,0,0,0,0,0,0,0,0,0,0,0,0,0,-0.1740723,-1.15918,-0.06091309,0,0,0,0,0,0
0.7799996,1,0.3686016,-0.3688727,-0.3688727,0,0,0,0,0,0,0,0,0,0,0,0,0,0,0,0,0,-0.1175537,-1.170654,0.1000977,0,0,0,0,0,0
0.7899995,1,0.3686016,-0.243182,-0.1201934,0,0,0,0,0,0,0,0,0,0,0,0,0,0,-0.09073061,0.01474685,0.009248025,-0.2076416,-1.159546,-0.02087402,0,0,0,0,0,0
0.7999995,1,0.3928797,-0.1159605,0.01656578,0,0,0,0,0,0,0,0,0,0,0,1,0,0,0,0,0,-0.1920166,-1.194214,0.05725098,0,0,0,0,0,0
0.8099995,1,0.4662001,-0.1055254,0.0972489,0,0,0,0,0,0,0,0,0,0,0,1,0,0,0,0,0,-0.2655029,-0.7375488,0.3226318,0,0,0,0,0,0
0.8199995,0.9947014,0.5552751,-0.1493903,0.203714,0,0,0,0,0,0,0,0,0,0,0,1,0,0,-0.1275769,0.02745325,-0.058367,0.1088867,-0.9458008,-0.04040527,0,0,0,0,0,0
0.8299995,0.9545932,0.6190876,-0.1839639,0.2423652,0,0,0,0,0,0,0,0,0,0,0,1,0,0,0,0,0,0.1397705,-0.9300537,-0.2967529,0,0,0,0,0,0
0.8399995,0.8761782,0.7481521,-0.1998687,0.2535647,0,0,0,0,0,0,0,0,0,0,0,1,0,0,0,0,0,-0.1157227,-0.9359131,-0.2198486,0,0,0,0,0,0
0.8499995,0.5962548,0.7521384,-0.2039039,0.2393654,0,0,0,0,0,0,0,0,0,0,0,1,0,0,0.02898908,-0.0932149,-0.08171923,-0.1849365,-0.911499,-0.3068848,0,0,0,0,0,0
0.8599995,0.3424164,0.607513,-0.1880181,0.1716687,0,0,0,0,0,0,0,0,0,0,0,1,0,0,0,0,0,-0.1174316,-0.8828125,-0.2403564,0,0,0,0,0,0
0.8699995,0.0609622,0.2931992,-0.1747459,0.1009096,0,0,0,0,0,0,0,0,0,0,0,1,0,0,0,0,0,-0.04382324,-0.8070068,0.002807617,0,0,0,0,0,0
0.8799995,0,0,-0.1570942,0.04203929,0,0,0,0,0,0,0,0,0,0,0,1,0,0,0.2961385,-0.0169936,-0.05722845,0.01733398,-0.9796143,0.1253662,0,0,0,0,0,0
0.8899994,-0.1570942,-0.04203929,-0.1524967,0.01933056,0,0,0,0,0,0,0,0,0,0,0,1,0,0,0,0,0,-0.001831055,-1.073975,0.109375,0,0,0,0,0,0
0.8999994,-0.5281581,-0.1643936,-0.160323,0,0,0,0,0,0,0,0,0,0,0,0,0,0,0,0,0,0,-0.04016113,-1.139648,-0.08227539,0,0,0,0,0,0
0.9099994,-1,-0.2802319,-0.1696912,-0.006787647,0,0,0,0,0,0,0,0,0,0,0,0,0,0,0.08671029,-0.02398901,-0.01574279,-0.0925293,-1.031616,-0.03320313,0,0,0,0,0,0
0.9199994,-1,-0.3122526,-0.1696912,-0.006787647,0,0,0,0,0,0,0,0,0,0,0,0,0,0,0,0,0,-0.03125,-1.079102,0.08886719,0,0,0,0,0,0
0.9299994,-1,-0.3928797,-0.2157961,-0.007616332,0,0,0,0,0,0,0,0,0,0,0,0,0,0,0,0,0,-0.1972656,-0.9788818,0.06408691,0,0,0,0,0,0
0.9399994,-1,-0.4167845,-0.3080305,-0.008800871,0,0,0,0,0,0,0,0,0,0,0,0,0,0,-0.05123488,0.005748304,0.02499263,-0.004516602,-1.150146,0.03051758,0,0,0,0,0,0
0.9499994,-1,-0.4249173,-0.3820708,0.02210327,0,0,0,0,0,0,0,0,0,0,0,0,0,0,0,0,0,-0.03552246,-1.152222,0.04931641,0,0,0,0,0,0
0.9599994,-0.9956806,-0.4244535,-0.4480202,0.1650601,0,0,0,0,0,0,0,0,0,0,0,1,0,0,0,0,0,-0.1104736,-1.141479,0.01745605,0,0,0,0,0,0
0.9699994,-0.9956806,-0.4244535,-0.4772716,0.2612801,0,0,0,0,0,0,0,0,0,0,0,1,0,0,0,0,0,-0.260376,-0.7659912,0.03869629,0,0,0,0,0,0
0.9799994,-0.9956806,-0.4244535,-0.5307092,0.4209073,0,0,0,0,0,0,0,0,0,0,0,1,0,0,0,0,0,-0.01855469,-0.9185791,-0.2703857,0,0,0,0,0,0
0.9899994,-0.9956806,-0.4244535,-0.5676738,0.5300795,0,0,0,0,0,0,0,0,0,0,0,1,0,0,0,0,0,-0.01367188,-0.838623,-0.2712402,0,0,0,0,0,0
0.9999993,-0.9956806,-0.4244535,-0.5794572,0.564308,0,0,0,0,0,0,0,0,0,0,0,1,0,0,0,0,0,0.00378418,-0.8612061,-0.2098389,0,0,0,0,0,0
1.009999,-0.9721088,-0.4801027,-0.5802806,0.5726953,0,0,0,0,0,0,0,0,0,0,0,1,0,0,0,0,0,-0.03686523,-0.8907471,-0.07873535,0,0,0,0,0,0
1.019999,-0.9495519,-0.5443038,-0.5710425,0.563479,0,0,0,0,0,0,0,0,0,0,0,1,0,0,0.1278076,-0.03229794,-0.01776387,-0.06176758,-0.9658203,0.1287842,0,0,0,0,0,0
1.029999,-0.9263003,-0.5923551,-0.557523,0.5126219,0,0,0,0,0,0,0,0,0,0,0,1,0,0,0,0,0,-0.09692383,-0.9836426,0.1547852,0,0,0,0,0,0
1.039999,-0.8700544,-0.6634662,-0.5440884,0.3907211,0,0,0,0,0,0,0,0,0,0,0,1,0,0,0,0,0,-0.0892334,-1.052246,0.0892334,0,0,0,0,0,0
1.049999,-0.8147796,-0.7352889,-0.5218775,0.2733644,0,0,0,0,0,0,0,0,0,0,0,0,0,0,0.1099586,0.02224163,0.01549417,-0.1252441,-1.118286,0.0526123,0,0,0,0,0,0
1.059999,-0.7755088,-0.7834626,-0.4885556,0.2113609,0,0,0,0,0,0,0,0,0,0,0,0,0,0,0,0,0,-0.1767578,-1.07959,0.02734375,0,0,0,0,0,0
1.069999,-0.6959809,-0.8550623,-0.4212874,0.1625439,0,0,0,0,0,0,0,0,0,0,0,0,0,0,0,0,0,-0.2559814,-1.075073,-0.005004883,0,0,0,0,0,0
1.079999,-0.6251402,-0.9197923,-0.3672107,0.1500774,0,0,0,0,0,0,0,0,0,0,0,0,0,0,-0.00674746,-0.02499059,-0.02599021,-0.2084961,-1.078857,0.06640625,0,0,0,0,0,0
1.089999,-0.5614042,-0.9595633,-0.3320856,0.1458694,0,0,0,0,0,0,0,0,0,0,0,0,0,0,0,0,0,-0.1207275,-1.049194,0.1308594,0,0,0,0,0,0
1.099999,-0.4498426,-1,-0.2985891,0.1477865,0,0,0,0,0,0,0,0,0,0,0,0,0,0,0,0,0,-0.1036377,-1.131104,0.1164551,0,0,0,0,0,0
1.109999,-0.3202776,-1,-0.2598326,0.229264,0,0,0,0,0,0,0,0,0,0,0,1,0,0,-0.1861799,0.0009996236,0.001499435,-0.07568359,-1.037231,-0.01367188,0,0,0,0,0,0
1.119999,-0.2165419,-1,-0.2320624,0.3147148,0,0,0,0,0,0,0,0,0,0,0,1,0,0,0,0,0,-0.1472168,-1.059692,0.2877197,0,0,0,0,0,0
1.129999,-0.035298,-1,-0.2257442,0.4211645,0,0,0,0,0,0,0,0,0,0,0,1,0,0,0,0,0,0.07446289,-1.016479,-0.1536865,0,0,0,0,0,0
1.139999,0.1217254,-1,-0.2333729,0.4911281,0,0,0,0,0,0,0,0,0,0,0,1,0,0,-0.05558879,-0.04128794,-0.01014899,-0.01171875,-0.8961182,-0.3040771,0,0,0,0,0,0
1.149999,0.2006854,-1,-0.2301105,0.5345644,0,0,0,0,0,0,0,0,0,0,0,1,0,0,0,0,0,-0.01281738,-0.7921143,-0.1964111,0,0,0,0,0,0
1.159999,0.3122526,-1,-0.2249381,0.56056,0,0,0,0,0,0,0,0,0,0,0,1,0,0,0,0,0,0.07983398,-0.9195557,-0.1542969,0,0,0,0,0,0
1.169999,0.3686016,-1,-0.2249381,0.56056,0,0,0,0,0,0,0,0,0,0,0,1,0,0,0.0777389,-0.02606675,-0.003690868,0.04577637,-0.9770508,-0.1390381,0,0,0,0,0,0
1.179999,0.4009901,-1,-0.2249381,0.56056,0,0,0,0,0,0,0,0,0,0,0,1,0,0,0,0,0,0.0189209,-0.9865723,-0.07983398,0,0,0,0,0,0
1.189999,0.4172379,-1,-0.2227076,0.5337911,0,0,0,0,0,0,0,0,0,0,0,1,0,0,0,0,0,-0.02685547,-0.9006348,0.07568359,0,0,0,0,0,0
1.199999,0.4253754,-1,-0.2141748,0.4453475,0,0,0,0,0,0,0,0,0,0,0,1,0,0,0.1959262,0.04848175,0.003748589,-0.03320313,-1.075439,0.02661133,0,0,0,0,0,0
1.209999,0.4253754,-1,-0.2091608,0.4017215,0,0,0,0,0,0,0,0,0,0,0,0,0,0,0,0,0,-0.06408691,-1.130371,0.03283691,0,0,0,0,0,0
1.219999,0.4172379,-1,-0.1753988,0.3539868,0,0,0,0,0,0,0,0,0,0,0,0,0,0,0,0,0,-0.09765625,-1.225464,-0.0748291,0,0,0,0,0,0
1.229999,0.3766855,-1,-0.128013,0.3465718,0,0,0,0,0,0,0,0,0,0,0,0,0,0,0.04598268,0,-0.009746331,-0.21521,-1.02478,0.03662109,0,0,0,0,0,0
1.239999,0.336352,-1,-0.09633461,0.3511552,0,0,0,0,0,0,0,0,0,0,0,0,0,0,0,0,0,-0.199585,-1.031616,0.09387207,0,0,0,0,0,0
1.249999,0.2722459,-1,-0.05079426,0.4842386,0,0,0,0,0,0,0,0,0,0,0,0,0,0,0,0,0,-0.07885742,-1.166748,0.2092285,0,0,0,0,0,0
1.259999,0.2086106,-1,0.03330223,0.7141477,0,0,0,0,0,0,0,0,0,0,0,0,0,0,-0.09471434,-0.01399473,-0.01399473,-0.1242676,-1.185059,0.07666016,0,0,0,0,0,0
1.269999,0.1690417,-1,0.0965137,0.8995077,0,0,0,0,0,0,0,0,0,0,0,1,0,0,0,0,0,-0.1138916,-1.053467,0.06591797,0,0,0,0,0,0
1.279999,0.09812176,-1,0.1769445,1,0,0,0,0,0,0,0,0,0,0,0,1,0,0,0,0,0,-0.1567383,-0.6022949,0.1589355,0,0,0,0,0,0
1.289999,0.02745281,-1,0.1848525,1,0,0,0,0,0,0,0,0,0,0,0,1,0,0,0,0,0,-0.02648926,-1.004272,0.04785156,0,0,0,0,0,0
1.299999,-0.1217254,-1,0.1848525,1,0,0,0,0,0,0,0,0,0,0,0,1,0,0,0,0,0,0.07580566,-0.958374,-0.1971436,0,0,0,0,0,0
1.309999,-0.2882255,-1,0.1848525,1,0,0,0,0,0,0,0,0,0,0,0,1,0,0,0,0,0,-0.03564453,-0.9439697,-0.1256104,0,0,0,0,0,0
1.319999,-0.3847782,-1,0.1927661,1,0,0,0,0,0,0,0,0,0,0,0,1,0,0,0,0,0,0.009033203,-0.9969482,-0.1254883,0,0,0,0,0,0
1.329999,-0.5052344,-0.9826212,0.2006854,1,0,0,0,0,0,0,0,0,0,0,0,1,0,0,0,0,0,0.01208496,-1.013428,-0.05615234,0,0,0,0,0,0
1.339999,-0.5923551,-0.9263003,0.1843599,0.9845603,0,0,0,0,0,0,0,0,0,0,0,1,0,0,0.03248777,-0.02399097,0.01749341,0.07128906,-0.90979,-0.06689453,0,0,0,0,0,0
1.349999,-0.6323221,-0.9027491,0.1336267,0.8361214,0,0,0,0,0,0,0,0,0,0,0,1,0,0,0,0,0,-0.003540039,-0.8166504,0.08203125,0,0,0,0,0,0
1.359999,-0.648488,-0.8951521,0.05967038,0.5580935,0,0,0,0,0,0,0,0,0,0,0,1,0,0,0,0,0,0.02514648,-1.006592,0.0546875,0,0,0,0,0,0
1.369999,-0.6562817,-0.8869745,-0.01316958,0.2344186,0,0,0,0,0,0,0,0,0,0,0,0,0,0,0.1414352,0.05972265,0.04772814,-0.06188965,-1.051758,-0.00378418,0,0,0,0,0,0
1.379999,-0.6634662,-0.8700544,-0.01293234,0.04675537,0,0,0,0,0,0,0,0,0,0,0,0,0,0,0,0,0,-0.0769043,-1.199219,-0.08312988,0,0,0,0,0,0
1.389999,-0.6959809,-0.8550623,0,0,0,0,0,0,0,0,0,0,0,0,0,0,0,0,0,0,0,-0.2318115,-1.023193,0.02246094,0,0,0,0,0,0
1.399999,-0.728039,-0.8314762,0,0,0,0,0,0,0,0,0,0,0,0,0,0,0,0,0,0,0,-0.2491455,-1.125977,0.0390625,0,0,0,0,0,0
1.409999,-0.7438167,-0.8154141,0,0,0,0,0,0,0,0,0,0,0,0,0,0,0,0,-0.04173768,-0.0199941,-0.01174653,-0.1588135,-1.060181,0.102417,0,0,0,0,0,0
1.419999,-0.7438167,-0.8154141,0,0,0,0,0,0,0,0,0,0,0,0,0,0,0,0,0,0,0,-0.0534668,-1.205566,0.2121582,0,0,0,0,0,0
1.429999,-0.7438167,-0.8154141,0,0,0,0,0,0,0,0,0,0,0,0,0,0,0,0,0,0,0,-0.1094971,-1.111938,0.06896973,0,0,0,0,0,0
1.439999,-0.7675676,-0.7914298,0,0,0,0,0,0,0,0,0,0,0,0,0,1,0,0,-0.2350829,0.01753317,0.006920988,-0.07434082,-1.007568,0.06469727,0,0,0,0,0,0
1.449999,-0.790792,-0.7590014,0,0,0,0,0,0,0,0,0,0,0,0,0,1,0,0,0,0,0,-0.1306152,-0.7858887,0.08325195,0,0,0,0,0,0
1.459999,-0.8382716,-0.7031947,-0.01293234,0.04675537,0,0,0,0,0,0,0,0,0,0,0,1,0,0,0,0,0,0.09020996,-0.9163818,-0.2019043,0,0,0,0,0,0
1.469999,-0.8700544,-0.6634662,-0.01754869,0.05732573,0,0,0,0,0,0,0,0,0,0,0,1,0,0,-0.07336247,-0.02514626,-0.03183654,0.03161621,-0.8394775,-0.1942139,0,0,0,0,0,0
1.479999,-0.8857571,-0.6394928,-0.02385956,0.06153254,0,0,0,0,0,0,0,0,0,0,0,1,0,0,0,0,0,0.05029297,-0.855957,-0.164917,0,0,0,0,0,0
1.489999,-0.9021508,-0.6239545,-0.0009635704,0.001298725,0,0,0,0,0,0,0,0,0,0,0,1,0,0,0,0,0,0.05810547,-0.9077148,-0.1512451,0,0,0,0,0,0
1.499999,-0.9103752,-0.6161929,0,0,0,0,0,0,0,0,0,0,0,0,0,1,0,0,0,0,0,0.0378418,-0.9709473,-0.1484375,0,0,0,0,0,0
1.509999,-0.925144,-0.5757334,0,0,0,0,0,0,0,0,0,0,0,0,0,1,0,0,0,0,0,-0.01525879,-0.8421631,0.01293945,0,0,0,0,0,0
1.519999,-0.956296,-0.5118763,0,0,0,0,0,0,0,0,0,0,0,0,0,1,0,0,0,0,0,0.01586914,-0.9621582,0.0279541,0,0,0,0,0,0
1.529999,-0.9795809,-0.4560802,-0.07150721,-0.03940193,0,0,0,0,0,0,0,0,0,0,0,0,0,0,0.1784328,0.03173805,0.07772074,-0.06933594,-1.078735,0.04553223,0,0,0,0,0,0
1.539999,-0.9866543,-0.423984,-0.1048671,-0.06673362,0,0,0,0,0,0,0,0,0,0,0,0,0,0,0,0,0,-0.1224365,-1.2229,-0.06359863,0,0,0,0,0,0
1.549999,-1,-0.3843456,-0.107327,-0.0722018,0,0,0,0,0,0,0,0,0,0,0,0,0,0,0,0,0,-0.2745361,-1.069824,-0.008789063,0,0,0,0,0,0
1.559999,-1,-0.3762585,-0.107327,-0.0722018,0,0,0,0,0,0,0,0,0,0,0,0,0,0,0,0,0,-0.1862793,-1.094971,0.102417,0,0,0,0,0,0
1.569999,-1,-0.3762585,-0.08349611,-0.02277167,0,0,0,0,0,0,0,0,0,0,0,0,0,0,-0.04048805,0.00199941,0.0142458,-0.1187744,-1.224609,0.2277832,0,0,0,0,0,0
1.579999,-1,-0.3605264,-0.04229435,0.006299159,0,0,0,0,0,0,0,0,0,0,0,0,0,0,0,0,0,-0.1375732,-1.179688,0.04907227,0,0,0,0,0,0
1.589999,-1,-0.3444016,-0.05523647,0.03982164,0,0,0,0,0,0,0,0,0,0,0,1,0,0,0,0,0,-0.08532715,-1.218384,0.2408447,0,0,0,0,0,0
1.599999,-1,-0.3122526,-0.08720156,0.107481,0,0,0,0,0,0,0,0,0,0,0,1,0,0,0,0,0,-0.1774902,-0.833252,0.3166504,0,0,0,0,0,0
1.609999,-1,-0.2882255,-0.1172079,0.2262385,0,0,0,0,0,0,0,0,0,0,0,1,0,0,-0.1790071,0.03091102,-0.04867332,-0.001586914,-1.021851,-0.1220703,0,0,0,0,0,0
1.619999,-1,-0.2882255,-0.1480319,0.3496073,0,0,0,0,0,0,0,0,0,0,0,1,0,0,0,0,0,-0.03894043,-0.8536377,-0.2244873,0,0,0,0,0,0
1.629999,-1,-0.2882255,-0.1529442,0.3937499,0,0,0,0,0,0,0,0,0,0,0,1,0,0,0,0,0,0.03198242,-0.8615723,-0.1422119,0,0,0,0,0,0
1.639999,-1,-0.2882255,-0.1529442,0.3937499,0,0,0,0,0,0,0,0,0,0,0,1,0,0,0,0,0,0.02270508,-0.90625,-0.1147461,0,0,0,0,0,0
1.649999,-1,-0.2882255,-0.1460991,0.3928443,0,0,0,0,0,0,0,0,0,0,0,1,0,0,0,0,0,0.01330566,-0.9246826,-0.1461182,0,0,0,0,0,0
1.659999,-1,-0.2882255,-0.1163632,0.3013508,0,0,0,0,0,0,0,0,0,0,0,1,0,0,0,0,0,0.01184082,-0.9139404,-0.02075195,0,0,0,0,0,0
1.669999,-1,-0.2882255,-0.06184138,0.1626199,0,0,0,0,0,0,0,0,0,0,0,1,0,0,0.1949107,0.02873684,0.0484778,-0.03515625,-0.932373,0.02648926,0,0,0,0,0,0
1.679999,-1,-0.2882255,-0.02737064,0.06386483,0,0,0,0,0,0,0,0,0,0,0,1,0,0,0,0,0,-0.03466797,-0.9981689,-0.01574707,0,0,0,0,0,0
1.689999,-1,-0.2882255,0,0,0,0,0,0,0,0,0,0,0,0,0,0,0,0,0,0,0,-0.137207,-1.081177,-0.009033203,0,0,0,0,0,0
1.699999,-1,-0.2882255,0,0,0,0,0,0,0,0,0,0,0,0,0,0,0,0,0.0777389,0.002768151,0.02168385,-0.2507324,-1.213867,0.06835938,0,0,0,0,0,0
1.709999,-1,-0.3042357,0,0,0,0,0,0,0,0,0,0,0,0,0,0,0,0,0,0,0,-0.2570801,-1.117065,0.0267334,0,0,0,0,0,0
1.719999,-1,-0.3928797,0,0,0,0,0,0,0,0,0,0,0,0,0,0,0,0,0,0,0,-0.2321777,-1.166138,0.06921387,0,0,0,0,0,0
1.729999,-0.9980689,-0.4652353,0,0,0,0,0,0,0,0,0,0,0,0,0,0,0,0,0,0,0,-0.1341553,-1.152588,0.1361084,0,0,0,0,0,0
1.739999,-0.9757748,-0.5376719,0.04690064,0.05494076,0,0,0,0,0,0,0,0,0,0,0,0,0,0,0,0,0,-0.1422119,-1.246582,0.2023926,0,0,0,0,0,0
1.749999,-0.9512189,-0.5691394,0.2583781,0.3434139,0,0,0,0,0,0,0,0,0,0,0,1,0,0,0,0,0,-0.1191406,-1.161377,0.1376953,0,0,0,0,0,0
1.759999,-0.9357346,-0.6012593,0.4800654,0.7335399,0,0,0,0,0,0,0,0,0,0,0,1,0,0,-0.3243779,0.01974257,-0.07522168,-0.1887207,-0.7506104,0.1794434,0,0,0,0,0,0
1.769999,-0.9280418,-0.6173669,0.5579947,0.9062466,0,0,0,0,0,0,0,0,0,0,0,1,0,0,0,0,0,-0.01660156,-1.018066,-0.1008301,0,0,0,0,0,0
1.779999,-0.9033475,-0.6407002,0.5779957,0.9606686,0,0,0,0,0,0,0,0,0,0,0,1,0,0,0,0,0,0.08422852,-0.8588867,-0.2004395,0,0,0,0,0,0
1.789999,-0.8945485,-0.6400992,0.5779957,0.9606686,0,0,0,0,0,0,0,0,0,0,0,1,0,0,0,0,0,0.04492188,-0.8399658,-0.1584473,0,0,0,0,0,0
1.799999,-0.8945485,-0.6400992,0.5946276,0.9617803,0,0,0,0,0,0,0,0,0,0,0,1,0,0,0,0,0,0.05529785,-0.918457,-0.2086182,0,0,0,0,0,0
1.809999,-0.9033475,-0.6407002,0.6048162,0.8657174,0,0,0,0,0,0,0,0,0,0,0,1,0,0,0,0,0,0.0480957,-0.9588623,-0.1674805,0,0,0,0,0,0
1.819999,-0.9263003,-0.5923551,0.5926905,0.7089043,0,0,0,0,0,0,0,0,0,0,0,1,0,0,0,0,0,0.06994629,-0.9678955,-0.1248779,0,0,0,0,0,0
1.829999,-0.9890714,-0.4647444,0.486527,0.4000333,0,0,0,0,0,0,0,0,0,0,0,1,0,0,0,0,0,0.0201416,-0.6749268,-0.02197266,0,0,0,0,0,0
1.839999,-1,-0.3444016,0.2946737,0.07293904,0,0,0,0,0,0,0,0,0,0,0,1,0,0,0.1794685,0.04959604,0.03898479,0.07666016,-0.8652344,-0.02941895,0,0,0,0,0,0
1.849999,-1,-0.2642672,0.1469924,-0.03621552,0,0,0,0,0,0,0,0,0,0,0,0,0,0,0,0,0,0.04248047,-1.039429,-0.04797363,0,0,0,0,0,0
1.859999,-1,-0.1532514,0.08937357,-0.08557043,0,0,0,0,0,0,0,0,0,0,0,0,0,0,0,0,0,-0.06286621,-1.079834,-0.1766357,0,0,0,0,0,0
1.869999,-1,-0.1059862,0.07785513,-0.1097957,0,0,0,0,0,0,0,0,0,0,0,0,0,0,0,0,0,-0.1850586,-1.029663,-0.07397461,0,0,0,0,0,0
1.879999,-1,-0.035298,0.07236225,-0.1425317,0,0,0,0,0,0,0,0,0,0,0,0,0,0,0,0,0,-0.2803955,-1.143311,-0.03137207,0,0,0,0,0,0
1.889999,-1,0.01960851,0.08117762,-0.1844946,0,0,0,0,0,0,0,0,0,0,0,0,0,0,-0.01449454,-0.0009996236,0.02624012,-0.1542969,-1.146484,0.04785156,0,0,0,0,0,0
1.899999,-1,0.05884144,0.08566734,-0.2102744,0,0,0,0,0,0,0,0,0,0,0,0,0,0,0,0,0,-0.104248,-1.201172,0.1136475,0,0,0,0,0,0
1.909999,-1,0.1217254,0.1110014,-0.2247102,0,0,0,0,0,0,0,0,0,0,0,0,0,0,0,0,0,-0.1068115,-1.192993,-0.006958008,0,0,0,0,0,0
1.919999,-1,0.1927661,0.1495468,-0.234196,0,0,0,0,0,0,0,0,0,0,0,1,0,0,-0.1841806,0.01174558,0.009996235,-0.1005859,-1.167969,0.1262207,0,0,0,0,0,0
1.929999,-1,0.2324234,0.1664295,-0.1937131,0,0,0,0,0,0,0,0,0,0,0,1,0,0,0,0,0,-0.1275635,-0.961792,-0.01940918,0,0,0,0,0,0
1.939999,-1,0.2802319,0.1610485,-0.1263611,0,0,0,0,0,0,0,0,0,0,0,1,0,0,-0.1402282,0.009686819,-0.03459578,-0.140625,-0.9858398,-0.1290283,0,0,0,0,0,0
1.949998,-1,0.2802319,0.1565978,-0.09115396,0,0,0,0,0,0,0,0,0,0,0,1,0,0,0,0,0,-0.02734375,-0.8522949,-0.2150879,0,0,0,0,0,0
1.959998,-1,0.2802319,0.1471609,-0.06369652,0,0,0,0,0,0,0,0,0,0,0,1,0,0,0,0,0,0.01379395,-0.8127441,-0.2039795,0,0,0,0,0,0
1.969998,-1,0.2642672,0.1454321,-0.05860695,0,0,0,0,0,0,0,0,0,0,0,1,0,0,0.03344849,-0.02583608,-0.04844264,0.04223633,-0.8885498,-0.2061768,0,0,0,0,0,0
1.979998,-1,0.2244794,0.1508021,-0.07427564,0,0,0,0,0,0,0,0,0,0,0,1,0,0,0,0,0,-0.01220703,-0.9681396,-0.1276855,0,0,0,0,0,0
1.989998,-1,0.1217254,0.1786224,-0.1626264,0,0,0,0,0,0,0,0,0,0,0,1,0,0,0,0,0,-0.05334473,-0.9556885,0.0255127,0,0,0,0,0,0
1.999998,-1,0.02745281,0.1871557,-0.2584531,0,0,0,0,0,0,0,0,0,0,0,1,0,0,0,0,0,0.01708984,-0.9903564,-0.04089355,0,0,0,0,0,0
2.009999,-0.922525,-0.2374431,0.1791944,-0.4496765,0,0,0,0,0,0,0,0,0,0,0,0,0,0,0,0,0,-0.06152344,-1.068359,0.006347656,0,0,0,0,0,0
2.019999,-0.6834283,-0.5001627,0.1859195,-0.6379592,0,0,0,0,0,0,0,0,0,0,0,0,0,0,0,0,0,-0.09472656,-1.085938,-0.05444336,0,0,0,0,0,0
2.029999,-0.4963858,-0.7349588,0.1918933,-0.7562853,0,0,0,0,0,0,0,0,0,0,0,0,0,0,-0.01074595,0.0124953,-0.01949266,-0.1861572,-1.010254,-0.0324707,0,0,0,0,0,0
2.039999,-0.3711729,-0.9025362,0.193834,-0.8019406,0,0,0,0,0,0,0,0,0,0,0,0,0,0,0,0,0,-0.1601563,-1.046509,-0.09204102,0,0,0,0,0,0
2.049999,-0.1848525,-1,0.2033672,-0.8480031,0,0,0,0,0,0,0,0,0,0,0,0,0,0,0,0,0,-0.05834961,-1.176025,0.1035156,0,0,0,0,0,0
2.059999,-0.09026043,-1,0.235254,-0.8677402,0,0,0,0,0,0,0,0,0,0,0,0,0,0,0,0,0,-0.004272461,-1.154541,0.08789063,0,0,0,0,0,0
2.069999,0.05099206,-1,0.3060133,-0.8715569,0,0,0,0,0,0,0,0,0,0,0,0,0,0,0,0,0,-0.05554199,-1.111816,0.046875,0,0,0,0,0,0
2.079998,0.1374799,-1,0.3696508,-0.8754888,0,0,0,0,0,0,0,0,0,0,0,1,0,0,-0.1819899,0.009918332,0.03552147,-0.06628418,-0.8292236,-0.09448242,0,0,0,0,0,0
2.089998,0.1690417,-1,0.4086985,-0.8602129,0,0,0,0,0,0,0,0,0,0,0,1,0,0,0,0,0,-0.1166992,-1.137329,0.04492188,0,0,0,0,0,0
2.099998,0.1927661,-1,0.4503517,-0.7659827,0,0,0,0,0,0,0,0,0,0,0,1,0,0,0,0,0,-0.08874512,-0.8800049,-0.1236572,0,0,0,0,0,0
2.109998,0.1927661,-1,0.4848112,-0.6050744,0,0,0,0,0,0,0,0,0,0,0,1,0,0,-0.09546406,-0.03348739,-0.04623259,-0.06054688,-0.9105225,-0.2581787,0,0,0,0,0,0
2.119998,0.1927661,-1,0.5137867,-0.4916089,0,0,0,0,0,0,0,0,0,0,0,1,0,0,0,0,0,-0.09289551,-0.9693604,-0.3258057,0,0,0,0,0,0
2.129998,0.1532514,-1,0.5637873,-0.3382724,0,0,0,0,0,0,0,0,0,0,0,1,0,0,0,0,0,-0.01000977,-0.9528809,-0.2415771,0,0,0,0,0,0
2.139998,0.113854,-1,0.5977408,-0.242719,0,0,0,0,0,0,0,0,0,0,0,1,0,0,0,0,0,0.02954102,-0.9749756,-0.08996582,0,0,0,0,0,0
2.149998,0.06669273,-1,0.6647244,-0.179953,0,0,0,0,0,0,0,0,0,0,0,1,0,0,0,0,0,0.1021729,-0.9678955,-0.08288574,0,0,0,0,0,0
2.159998,0.04314433,-1,0.6920377,-0.1813361,0,0,0,0,0,0,0,0,0,0,0,1,0,0,0.06022732,0.008246895,-0.04548287,0.04284668,-0.9394531,-0.09570313,0,0,0,0,0,0
2.169998,0.035298,-1,0.7198125,-0.1902095,0,0,0,0,0,0,0,0,0,0,0,0,0,0,0,0,0,-0.01208496,-0.9567871,-0.06384277,0,0,0,0,0,0
2.179998,0.035298,-1,0.7302715,-0.213464,0,0,0,0,0,0,0,0,0,0,0,0,0,0,0,0,0,0.002075195,-1.122681,-0.2089844,0,0,0,0,0,0
2.189998,0.035298,-1,0.7489173,-0.2220408,0,0,0,0,0,0,0,0,0,0,0,0,0,0,0.04998118,0.002748965,0.002499059,-0.09375,-0.9318848,-0.09411621,0,0,0,0,0,0
2.199998,0.035298,-1,0.7580091,-0.2225002,0,0,0,0,0,0,0,0,0,0,0,0,0,0,0,0,0,-0.1029053,-1.027832,-0.09350586,0,0,0,0,0,0
2.209998,0.035298,-1,0.7580091,-0.2225002,0,0,0,0,0,0,0,0,0,0,0,0,0,0,0,0,0,-0.04943848,-1.029663,-0.03393555,0,0,0,0,0,0
2.219998,0.035298,-1,0.7715625,-0.1242027,0,0,0,0,0,0,0,0,0,0,0,0,0,0,-0.04475177,0.0004613585,0.024452,-0.0456543,-1.212158,0.09777832,0,0,0,0,0,0
2.229998,0.06669273,-1,0.7785653,-0.01128355,0,0,0,0,0,0,0,0,0,0,0,0,0,0,0,0,0,-0.09643555,-1.142212,-0.04821777,0,0,0,0,0,0
2.239998,0.1217254,-1,0.8110793,0.1942021,0,0,0,0,0,0,0,0,0,0,0,1,0,0,0,0,0,-0.08215332,-1.178223,0.02294922,0,0,0,0,0,0
2.249998,0.1769445,-1,0.8373567,0.3357145,0,0,0,0,0,0,0,0,0,0,0,1,0,0,0,0,0,-0.09680176,-0.9536133,0.0345459,0,0,0,0,0,0
2.259998,0.2165419,-1,0.8626207,0.5632638,0,0,0,0,0,0,0,0,0,0,0,1,0,0,0,0,0,0.0008544922,-0.9855957,-0.2351074,0,0,0,0,0,0
2.269998,0.2403741,-1,0.8507007,0.7548471,0,0,0,0,0,0,0,0,0,0,0,1,0,0,-0.05248024,-0.06372601,-0.05223033,-0.04101563,-0.8928223,-0.3543701,0,0,0,0,0,0
2.279998,0.2403741,-1,0.7786492,0.826566,0,0,0,0,0,0,0,0,0,0,0,1,0,0,0.02424087,-0.04923147,-0.05173052,0.03918457,-0.890625,-0.2463379,0,0,0,0,0,0
2.289998,0.2642672,-1,0.6676687,0.9315377,0,0,0,0,0,0,0,0,0,0,0,1,0,0,0,0,0,0.1116943,-0.8703613,-0.1385498,0,0,0,0,0,0
2.299998,0.3042357,-1,0.5718616,0.995759,0,0,0,0,0,0,0,0,0,0,0,1,0,0,0.1054204,0.03760071,0.009919208,0.1639404,-0.8793945,-0.06201172,0,0,0,0,0,0
2.309998,0.336352,-1,0.5072563,1,0,0,0,0,0,0,0,0,0,0,0,1,0,0,0,0,0,0.03503418,-0.8063965,-0.0703125,0,0,0,0,0,0
2.319998,0.3686016,-1,0.3928797,1,0,0,0,0,0,0,0,0,0,0,0,1,0,0,0,0,0,-0.04541016,-0.9790039,-0.06555176,0,0,0,0,0,0
2.329998,0.3766855,-1,0.3042357,1,0,0,0,0,0,0,0,0,0,0,0,0,0,0,0,0,0,-0.1094971,-1.019165,-0.07067871,0,0,0,0,0,0
2.339998,0.3847782,-1,0.1848525,1,0,0,0,0,0,0,0,0,0,0,0,0,0,0,0,0,0,-0.09106445,-1.342529,-0.08459473,0,0,0,0,0,0
2.349998,0.3847782,-1,0.113854,1,0,0,0,0,0,0,0,0,0,0,0,0,0,0,0,0,0,-0.2424316,-1.194336,0.01965332,0,0,0,0,0,0
2.359998,0.3686016,-1,0.07454614,1,0,0,0,0,0,0,0,0,0,0,0,0,0,0,0,0,0,-0.2181396,-1.261597,0.1331787,0,0,0,0,0,0
2.369998,0.3202776,-1,0.01960851,1,0,0,0,0,0,0,0,0,0,0,0,0,0,0,0,0,0,-0.1929932,-1.21582,0.04040527,0,0,0,0,0,0
2.379998,0.2802319,-1,-0.035298,1,0,0,0,0,0,0,0,0,0,0,0,1,0,0,-0.1619522,-0.04398702,-0.02399292,-0.1002197,-1.095703,-0.03442383,0,0,0,0,0,0
2.389998,0.2483314,-1,-0.05884144,1,0,0,0,0,0,0,0,0,0,0,0,1,0,0,0,0,0,-0.1062012,-1.103149,0.08496094,0,0,0,0,0,0
2.399998,0.2006854,-1,-0.08240198,1,0,0,0,0,0,0,0,0,0,0,0,1,0,0,0,0,0,-0.1885986,-0.9348145,0.02087402,0,0,0,0,0,0
2.409998,0.1611441,-1,-0.1217254,1,0,0,0,0,0,0,0,0,0,0,0,1,0,0,-0.1197049,-0.05622883,-0.05822808,0.07226563,-0.8388672,-0.2745361,0,0,0,0,0,0
2.419998,0.1296006,-1,-0.1453634,1,0,0,0,0,0,0,0,0,0,0,0,1,0,0,0,0,0,0.009887695,-0.8634033,-0.274292,0,0,0,0,0,0
2.429998,0.08240198,-1,-0.1532514,1,0,0,0,0,0,0,0,0,0,0,0,1,0,0,0,0,0,0.004760742,-0.9061279,-0.2634277,0,0,0,0,0,0
2.439998,0.04314433,-1,-0.1507981,0.9009219,0,0,0,0,0,0,0,0,0,0,0,1,0,0,0.04175663,-0.04798551,-0.007151687,0.04650879,-0.9039307,-0.1608887,0,0,0,0,0,0
2.449998,0.035298,-1,-0.1469499,0.7724288,0,0,0,0,0,0,0,0,0,0,0,1,0,0,0,0,0,0.1054688,-0.9226074,-0.02648926,0,0,0,0,0,0
2.459998,0.02745281,-1,-0.1341996,0.634728,0,0,0,0,0,0,0,0,0,0,0,1,0,0,0,0,0,0.001220703,-0.8572998,-0.06408691,0,0,0,0,0,0
2.469998,0.02745281,-1,-0.1226068,0.542973,0,0,0,0,0,0,0,0,0,0,0,1,0,0,0,0,0,0.01940918,-0.8491211,-0.08898926,0,0,0,0,0,0
2.479998,0.02745281,-1,-0.09201207,0.3775668,0,0,0,0,0,0,0,0,0,0,0,0,0,0,0,0,0,-0.04333496,-0.9161377,-0.1674805,0,0,0,0,0,0
2.489998,0.02745281,-1,0,0,0,0,0,0,0,0,0,0,0,0,0,0,0,0,0,0,0,-0.1099854,-1.191528,-0.194458,0,0,0,0,0,0
2.499998,0.02745281,-1,0,0,0,0,0,0,0,0,0,0,0,0,0,0,0,0,0,0,0,-0.1467285,-1.109985,-0.03540039,0,0,0,0,0,0
2.509998,0.035298,-1,0,0,0,0,0,0,0,0,0,0,0,0,0,0,0,0,0,0,0,-0.1035156,-1.141846,-0.02612305,0,0,0,0,0,0
2.519998,0.035298,-1,0,0,0,0,0,0,0,0,0,0,0,0,0,0,0,0,0,0,0,-0.07373047,-1.009521,-0.1032715,0,0,0,0,0,0
2.529998,0.035298,-1,0,0,0,0,0,0,0,0,0,0,0,0,0,0,0,0,0,0,0,-0.0009765625,-1.033936,-0.01806641,0,0,0,0,0,0
2.539998,0.035298,-1,0,0,0,0,0,0,0,0,1,0,0,0,0,0,0,0,0,0,0,-0.08166504,-1.090576,0.0859375,0,0,0,0,0,0
2.549998,0.035298,-1,0,0,0,0,0,0,0,0,1,0,0,0,0,1,0,0,-0.1164562,0.01449454,0.006497554,0.02587891,-1.224731,0.1917725,0,0,0,0,0,0
2.559998,0.04314433,-1,0,0,0,0,0,0,0,0,1,0,0,0,0,1,0,0,0,0,0,-0.03234863,-0.9810791,0.09020996,0,0,0,0,0,0
2.569998,0.05884144,-1,0,0,0,0,0,0,0,0,1,0,0,0,0,1,0,0,0,0,0,0.04150391,-0.9038086,0.02307129,0,0,0,0,0,0
2.579998,0.07454614,-1,0,0,0,0,0,0,0,0,1,0,0,0,0,1,0,0,0,0,0,-0.0001220703,-1.074219,-0.07177734,0,0,0,0,0,0
2.589998,0.07454614,-1,0,0,0,0,0,0,0,0,1,0,0,0,0,1,0,0,0,0,0,-0.08227539,-0.9434814,-0.2741699,0,0,0,0,0,0
2.599998,0.07454614,-1,0,0,0,0,0,0,0,0,1,0,0,0,0,1,0,0,-0.04773203,-0.01224539,-0.02474068,-0.05773926,-0.9836426,-0.2348633,0,0,0,0,0,0
2.609998,0.06669273,-1,0,0,0,0,0,0,0,0,1,0,0,0,0,1,0,0,0,0,0,0.00378418,-0.9536133,-0.09399414,0,0,0,0,0,0
2.619998,0.035298,-1,0,0,0,0,0,0,0,0,1,0,0,0,0,1,0,0,0,0,0,-0.01635742,-0.9400635,-0.09106445,0,0,0,0,0,0
2.629998,0.01176485,-1,0,0,0,0,0,0,0,0,1,0,0,0,0,1,0,0,0.05347987,0.008246895,0.001249529,0.004882813,-1.015015,-0.09814453,0,0,0,0,0,0
2.639998,0.003921574,-1,0,0,0,0,0,0,0,0,1,0,0,0,0,1,0,0,0,0,0,0.009887695,-0.9793701,-0.09960938,0,0,0,0,0,0
2.649998,0,-1,0,0,0,0,0,0,0,0,1,0,0,0,0,0,0,0,0,0,0,-0.1176758,-0.9981689,-0.0802002,0,0,0,0,0,0
2.659998,-0.01176485,-1,0,0,0,0,0,0,0,0,1,0,0,0,0,0,0,0,-0.005747836,-0.0167437,0.01024614,-0.1199951,-1.004517,-0.0255127,0,0,0,0,0,0
2.669998,-0.01176485,-1,0,0,0,0,0,0,0,0,1,0,0,0,0,0,0,0,0,0,0,-0.07763672,-0.9886475,0.03955078,0,0,0,0,0,0
2.679998,-0.01176485,-1,0,0,0,0,0,0,0,0,1,0,0,0,0,0,0,0,0,0,0,-0.009033203,-1.121948,0.04089355,0,0,0,0,0,0
2.689998,-0.01176485,-1,0,0,0,0,0,0,0,0,1,0,0,0,0,0,0,0,-0.05697777,-0.006459019,-0.004382906,0.00769043,-0.9193115,-0.2038574,0,0,0,0,0,0
2.699998,-0.01176485,-1,0,0,0,0,0,0,0,0,1,0,0,0,0,1,0,0,0,0,0,-0.007446289,-0.9719238,-0.1044922,0,0,0,0,0,0
2.709998,0.01960851,-1,0,0,0,0,0,0,0,0,1,0,0,0,0,1,0,0,0,0,0,-0.02905273,-1.037231,0.03161621,0,0,0,0,0,0
2.719998,0.035298,-1,0,0,0,0,0,0,0,0,1,0,0,0,0,1,0,0,0,0,0,-0.1107178,-1.054443,0.07556152,0,0,0,0,0,0
2.729998,0.04314433,-1,0,0,0,0,0,0,0,0,1,0,0,0,0,1,0,0,0,0,0,0.005981445,-0.9997559,-0.2600098,0,0,0,0,0,0
2.739998,0.04314433,-1,0,0,0,0,0,0,0,0,1,0,0,0,0,1,0,0,0,0,0,-0.01757813,-0.9658203,-0.1901855,0,0,0,0,0,0
2.749998,0.04314433,-1,0,0,0,0,0,0,0,0,1,0,0,0,0,1,0,0,0,0,0,-0.0279541,-0.9298096,-0.09924316,0,0,0,0,0,0
2.759998,0.04314433,-1,0,0,0,0,0,0,0,0,0,0,0,0,0,1,0,0,0,0,0,0.003173828,-0.9155273,-0.04064941,0,0,0,0,0,0
2.769998,0.04314433,-1,0,0,0,0,0,0,0,0,0,0,0,0,0,1,0,0,0.08171923,0.01599398,0.0127452,0.03735352,-1.037354,-0.03125,0,0,0,0,0,0
2.779998,0.05099206,-1,0,0,0,0,0,0,0,0,0,0,0,0,0,1,0,0,0,0,0,-0.01123047,-0.9019775,-0.1459961,0,0,0,0,0,0
2.789998,0.05099206,-1,0,0,0,0,0,0,0,0,0,0,0,0,0,0,0,0,0,0,0,-0.01879883,-0.9771729,0.0004882813,0,0,0,0,0,0
2.799998,0.05884144,-1,0,0,0,0,0,0,0,0,0,0,0,0,0,0,0,0,0.05123071,0.004748212,0.03223786,-0.1087646,-1.015137,0.0003662109,0,0,0,0,0,0
2.809998,0.05884144,-1,0,0,0,0,0,0,0,0,0,0,0,0,0,0,0,0,0,0,0,-0.1551514,-1.063843,-0.01135254,0,0,0,0,0,0
2.819998,0.05884144,-1,0,0,0,0,0,0,0,0,0,0,0,0,0,0,0,0,0,0,0,-0.1400146,-1.155884,0.04492188,0,0,0,0,0,0
2.829998,0.06669273,-1,0,0,0,0,0,0,0,0,0,0,0,0,0,0,0,0,-0.06274476,0.01361008,0.01591687,-0.08642578,-1.191895,0.2313232,0,0,0,0,0,0
2.839998,0.07454614,-1,0,0,0,0,0,0,0,0,0,0,0,0,0,0,0,0,0,0,0,-0.0213623,-0.8555908,0.0007324219,0,0,0,0,0,0
2.849998,0.1296006,-1,0,0,0,0,0,0,0,0,0,0,0,0,0,1,0,0,0,0,0,0.06640625,-1.314697,-0.05310059,0,0,0,0,0,0
2.859998,0.2006854,-1,0,0,0,0,0,0,0,0,1,0,0,0,0,1,0,0,-0.1577846,0.012226,0.002306792,-0.01879883,-1.015137,-0.08581543,0,0,0,0,0,0
2.869998,0.2483314,-1,0,0,0,0,0,0,0,0,1,0,0,0,0,1,0,0,0,0,0,-0.03222656,-1.013062,-0.0411377,0,0,0,0,0,0
2.879998,0.3283107,-1,0,0,0,0,0,0,0,0,1,0,0,0,0,1,0,0,0,0,0,0.08044434,-0.9400635,-0.1914063,0,0,0,0,0,0
2.889998,0.433522,-1,0,0,0,0,0,0,0,0,1,0,0,0,0,1,0,0,-0.04398344,-0.007996988,0.04373353,-0.05310059,-0.9318848,-0.1907959,0,0,0,0,0,0
2.899998,0.4990265,-1,0,0,0,0,0,0,0,0,1,0,0,0,0,1,0,0,0,0,0,-0.02954102,-1.006958,-0.2191162,0,0,0,0,0,0
2.909998,0.6046099,-0.9889976,0,0,0,0,0,0,0,0,1,0,0,0,0,1,0,0,0,0,0,-0.0715332,-0.8936768,-0.06384277,0,0,0,0,0,0
2.919998,0.7171578,-0.9174812,0,0,0,0,0,0,0,0,1,0,0,0,0,1,0,0,0.08646744,0.02449078,0.0889665,0.02661133,-0.8641357,-0.1376953,0,0,0,0,0,0
2.929998,0.7810984,-0.8612111,0,0,0,0,0,0,0,0,0,0,0,0,0,1,0,0,0,0,0,0.03173828,-0.7354736,-0.2435303,0,0,0,0,0,0
2.939998,0.851927,-0.7719339,0,0,0,0,0,0,0,0,0,0,0,0,0,0,0,0,0,0,0,-0.02746582,-1.020386,-0.1569824,0,0,0,0,0,0
2.949998,0.8830822,-0.7232483,0,0,0,0,0,0,0,0,0,0,0,0,0,0,0,0,0,0,0,-0.112793,-1.063965,-0.1379395,0,0,0,0,0,0
2.959998,0.8906124,-0.7068986,0,0,0,0,0,0,0,0,0,0,0,0,0,0,0,0,0.09473746,-0.001249835,0.03999471,-0.2399902,-1.215698,0.02319336,0,0,0,0,0,0
2.969998,0.8906124,-0.7068986,0,0,0,0,0,0,0,0,0,0,0,0,0,0,0,0,0,0,0,-0.2354736,-1.22644,0.06896973,0,0,0,0,0,0
2.979998,0.8500843,-0.7463182,0,0,0,0,0,0,0,0,0,0,0,0,0,0,0,0,0,0,0,-0.1599121,-1.113403,0.1087646,0,0,0,0,0,0
2.989998,0.7707045,-0.8345971,0,0,0,0,0,0,0,0,0,0,0,0,0,0,0,0,-0.05747836,-0.03923523,-0.07147308,0.0144043,-0.9903564,-0.1888428,0,0,0,0,0,0
2.999998,0.7226405,-0.8743551,0,0,0,0,0,0,0,0,1,0,0,0,0,0,0,0,0,0,0,-0.03918457,-0.7276611,-0.2218018,0,0,0,0,0,0
3.009998,0.6112997,-0.9628969,0,0,0,0,0,0,0,0,1,0,0,0,0,1,0,0,0,0,0,-0.09765625,-1.069336,0.0123291,0,0,0,0,0,0
3.019998,0.5072563,-1,0,0,0,0,0,0,0,0,1,0,0,0,0,1,0,0,0.007247271,-0.02224163,-0.06447572,-0.05407715,-1.0979,0.1125488,0,0,0,0,0,0
3.029998,0.4498426,-1,0,0,0,0,0,0,0,0,1,0,0,0,0,1,0,0,0,0,0,0.04919434,-1.036255,-0.0291748,0,0,0,0,0,0
3.039998,0.3847782,-1,0,0,0,0,0,0,0,0,1,0,0,0,0,1,0,0,0,0,0,-0.02709961,-0.9597168,-0.1206055,0,0,0,0,0,0
3.049998,0.336352,-1,0,0,0,0,0,0,0,0,1,0,0,0,0,1,0,0,0,0,0,-0.05700684,-0.9407959,-0.1237793,0,0,0,0,0,0
3.059998,0.2882255,-1,0,0,0,0,0,0,0,0,1,0,0,0,0,1,0,0,0,0,0,-0.0001220703,-0.8896484,-0.09960938,0,0,0,0,0,0
3.069998,0.2642672,-1,0,0,0,0,0,0,0,0,0,0,0,0,0,1,0,0,0.09071584,-0.005747836,0.021242,0.0423584,-0.7825928,-0.1405029,0,0,0,0,0,0
3.079998,0.2642672,-1,0,0,0,0,0,0,0,0,0,0,0,0,0,0,0,0,0,0,0,0.009277344,-1.022339,-0.05175781,0,0,0,0,0,0
3.089998,0.2642672,-1,0,0,0,0,0,0,0,0,0,0,0,0,0,0,0,0,0,0,0,-0.07824707,-0.9852295,-0.07165527,0,0,0,0,0,0
3.099998,0.3202776,-1,0,0,0,0,0,0,0,0,0,0,0,0,0,0,0,0,0.03998494,0.01024614,0.0592277,-0.1942139,-1.06311,-0.0177002,0,0,0,0,0,0
3.109998,0.3766855,-1,0,0,0,0,0,0,0,0,0,0,0,0,0,0,0,0,0,0,0,-0.2032471,-1.233276,0.04663086,0,0,0,0,0,0
3.119998,0.5072563,-1,0,0,0,0,0,0,0,0,0,0,0,0,0,0,0,0,0,0,0,-0.06115723,-1.143311,0.1694336,0,0,0,0,0,0
3.129997,0.6923701,-0.9244941,0,0,0,0,0,0,0,0,0,0,0,0,0,0,0,0,0,0,0,-0.2041016,-1.199585,0.06555176,0,0,0,0,0,0
3.139997,0.8743551,-0.7226405,0,0,0,0,0,0,0,0,0,0,0,0,0,0,0,0,-0.1636884,0.01074595,0.04473316,0.1014404,-0.9700928,-0.1090088,0,0,0,0,0,0
3.149997,0.9752428,-0.5294175,0,0,0,0,0,0,0,0,1,0,0,0,0,1,0,0,0,0,0,0.004150391,-0.5726318,-0.230835,0,0,0,0,0,0
3.159997,1,-0.2165419,0,0,0,0,0,0,0,0,1,0,0,0,0,1,0,0,-0.02024238,0.01499435,0.04398344,-0.0402832,-1.003296,-0.1148682,0,0,0,0,0,0
3.169997,1,-0.02745281,0,0,0,0,0,0,0,0,1,0,0,0,0,1,0,0,0,0,0,-0.1628418,-0.9591064,-0.078125,0,0,0,0,0,0
3.179997,1,0.2006854,0,0,0,0,0,0,0,0,1,0,0,0,0,1,0,0,0,0,0,0.04870605,-1.073486,-0.2272949,0,0,0,0,0,0
3.189997,1,0.2802319,0,0,0,0,0,0,0,0,1,0,0,0,0,1,0,0,0.0006919767,0.008073061,0.03828938,-0.06274414,-0.9407959,-0.2097168,0,0,0,0,0,0
3.199997,1,0.3042357,0,0,0,0,0,0,0,0,1,0,0,0,0,1,0,0,0,0,0,-0.05029297,-1.00354,-0.1202393,0,0,0,0,0,0
3.209997,1,0.3524597,0,0,0,0,0,0,0,0,1,0,0,0,0,1,0,0,0,0,0,-0.02856445,-1.043091,-0.05895996,0,0,0,0,0,0
3.219997,1,0.433522,0,0,0,0,0,0,0,0,0,0,0,0,0,1,0,0,0,0,0,0.008666992,-0.9744873,-0.1173096,0,0,0,0,0,0
3.229997,1,0.5392466,0,0,0,0,0,0,0,0,0,0,0,0,0,0,0,0,0.08788879,0.02214521,0.03690867,-0.05224609,-1.005737,-0.03552246,0,0,0,0,0,0
3.239997,0.979558,0.5957312,0,0,0,0,0,0,0,0,0,0,0,0,0,0,0,0,0,0,0,-0.07897949,-0.9381104,-0.1638184,0,0,0,0,0,0
3.249997,0.9397725,0.6598403,0,0,0,0,0,0,0,0,0,0,0,0,0,0,0,0,0,0,0,-0.1639404,-0.9368896,0.01000977,0,0,0,0,0,0
3.259997,0.9081243,0.7080969,0,0,0,0,0,0,0,0,0,0,0,0,0,0,0,0,0.05722845,0.003998494,0.021242,-0.2773438,-1.12085,0.06469727,0,0,0,0,0,0
3.269997,0.8918174,0.7238518,0,0,0,0,0,0,0,0,0,0,0,0,0,0,0,0,0,0,0,-0.2666016,-1.149414,0.05883789,0,0,0,0,0,0
3.279997,0.8836871,0.731741,0,0,0,0,0,0,0,0,0,0,0,0,0,0,0,0,0,0,0,-0.194458,-1.170166,0.1488037,0,0,0,0,0,0
3.289997,0.8836871,0.731741,0,0,0,0,0,0,0,0,0,0,0,0,0,0,0,0,-0.1057102,0.004748212,-0.0169936,-0.255249,-1.230103,0.05322266,0,0,0,0,0,0
3.299997,0.8842907,0.7402433,0,0,0,0,0,0,0,0,0,0,0,0,0,1,0,0,0,0,0,-0.09069824,-1.042114,0.03381348,0,0,0,0,0,0
3.309997,0.8842907,0.7402433,0,0,0,0,0,0,0,0,0,0,0,0,0,1,0,0,0,0,0,-0.01525879,-0.9822998,-0.168335,0,0,0,0,0,0
3.319997,0.8842907,0.7402433,0,0,0,0,0,0,0,0,0,0,0,0,0,1,0,0,-0.1094588,-0.01349492,-0.1117079,-0.1036377,-0.878418,-0.02978516,0,0,0,0,0,0
3.329997,0.8842907,0.7402433,-0.03181135,0.02493322,0,0,0,0,0,0,0,0,0,0,0,1,0,0,0,0,0,0.0246582,-1.035156,-0.02075195,0,0,0,0,0,0
3.339997,0.8842907,0.7402433,-0.09764812,0.05148719,0,0,0,0,0,0,0,0,0,0,0,1,0,0,0,0,0,0.04553223,-0.9031982,-0.2508545,0,0,0,0,0,0
3.349997,0.8842907,0.7402433,-0.1088355,0.02319446,0,0,0,0,0,0,0,0,0,0,0,1,0,0,0.02145317,-0.05213351,-0.1231827,-0.02514648,-0.9611816,-0.2631836,0,0,0,0,0,0
3.359997,0.8842907,0.7402433,-0.1250818,-0.01731901,0,0,0,0,0,0,0,0,0,0,0,1,0,0,0,0,0,-0.0279541,-0.9661865,-0.1431885,0,0,0,0,0,0
3.369997,0.8842907,0.7402433,-0.1547919,-0.1071636,0,0,0,0,0,0,0,0,0,0,0,1,0,0,0,0,0,-0.0802002,-0.8850098,-0.04919434,0,0,0,0,0,0
3.379997,0.8842907,0.7402433,-0.2022516,-0.2315634,0,0,0,0,0,0,0,0,0,0,0,1,0,0,0,0,0,-0.04016113,-0.7872314,-0.04260254,0,0,0,0,0,0
3.389997,0.8842907,0.7402433,-0.2848522,-0.4888205,0,0,0,0,0,0,0,0,0,0,0,1,0,0,0,0,0,0.0534668,-0.8342285,-0.08203125,0,0,0,0,0,0
3.399997,0.8842907,0.7402433,-0.3313437,-0.5716589,0,0,0,0,0,0,0,0,0,0,0,0,0,0,0,0,0,-0.005371094,-0.9232178,-0.1335449,0,0,0,0,0,0
3.409997,0.8842907,0.7402433,-0.329629,-0.5542113,0,0,0,0,0,0,0,0,0,0,0,0,0,0,0,0,0,-0.01025391,-1.133545,-0.08007813,0,0,0,0,0,0
3.419997,0.8842907,0.7402433,0,0,0,0,0,0,0,0,0,0,0,0,0,0,0,0,0,0,0,-0.1634521,-1.133423,0.05334473,0,0,0,0,0,0
3.429997,0.8842907,0.7402433,0,0,0,0,0,0,0,0,0,0,0,0,0,0,0,0,0,0,0,-0.1901855,-1.234985,0.104248,0,0,0,0,0,0
3.439997,0.8842907,0.7402433,0,0,0,0,0,0,0,0,0,0,0,0,0,0,0,0,0,0,0,-0.1881104,-1.168579,0.1016846,0,0,0,0,0,0
3.449997,0.8842907,0.7402433,0,0,0,0,0,0,0,0,0,0,0,0,0,0,0,0,0,0,0,-0.0682373,-1.045776,0.006835938,0,0,0,0,0,0
3.459997,0.8842907,0.7402433,0,0,0,0,0,0,0,0,0,0,0,0,0,0,0,0,-0.02224163,-0.0209921,0.008246895,-0.02319336,-0.9925537,-0.04541016,0,0,0,0,0,0
3.469997,0.8842907,0.7402433,-0.02455354,0.01322114,0,0,0,0,0,0,0,0,0,0,0,0,0,0,0,0,0,-0.01550293,-1.040649,0.05615234,0,0,0,0,0,0
3.479997,0.8930173,0.740844,-0.2049975,0.182532,0,0,0,0,0,0,0,0,0,0,0,0,0,0,0,0,0,-0.1138916,-1.036133,-0.002319336,0,0,0,0,0,0
3.489997,0.8930173,0.740844,-0.3641675,0.5156034,0,0,0,0,0,0,0,0,0,0,0,1,0,0,-0.07427871,0.01245668,-0.02629743,-0.01049805,-0.9487305,-0.04003906,0,0,0,0,0,0
3.499997,0.8930173,0.740844,-0.4120009,0.7893475,0,0,0,0,0,0,0,0,0,0,0,1,0,0,0,0,0,-0.07104492,-1.118286,0.1501465,0,0,0,0,0,0
3.509997,0.8930173,0.740844,-0.4575411,1,0,0,0,0,0,0,0,0,0,0,0,1,0,0,0,0,0,0.1445313,-1.055176,-0.08093262,0,0,0,0,0,0
3.519997,0.8930173,0.740844,-0.4821076,1,0,0,0,0,0,0,0,0,0,0,0,1,0,0,0.04290634,0.04382905,0.002768151,0.06872559,-0.9816895,-0.1403809,0,0,0,0,0,0
3.529997,0.8930173,0.740844,-0.4821076,1,0,0,0,0,0,0,0,0,0,0,0,1,0,0,0,0,0,-0.01416016,-0.9310303,-0.1119385,0,0,0,0,0,0
3.539997,0.8930173,0.740844,-0.4821076,1,0,0,0,0,0,0,0,0,0,0,0,1,0,0,0,0,0,-0.01879883,-0.9185791,-0.1269531,0,0,0,0,0,0
3.549997,0.8930173,0.740844,-0.4821076,1,0,0,0,0,0,0,0,0,0,0,0,1,0,0,0.07897027,-0.003998494,-0.02599021,-0.01623535,-0.9355469,-0.1729736,0,0,0,0,0,0
3.559997,0.8930173,0.740844,-0.4821076,1,0,0,0,0,0,0,0,0,0,0,0,1,0,0,0,0,0,-0.0300293,-0.9443359,-0.1402588,0,0,0,0,0,0
3.569997,0.8930173,0.740844,-0.4821076,1,0,0,0,0,0,0,0,0,0,0,0,1,0,0,0,0,0,-0.03283691,-1.001709,-0.1429443,0,0,0,0,0,0
3.579997,0.8930173,0.740844,-0.4821076,1,0,0,0,0,0,0,0,0,0,0,0,1,0,0,0,0,0,-0.06225586,-0.9743652,-0.02185059,0,0,0,0,0,0
3.589997,0.8930173,0.740844,-0.5057483,0.9915852,0,0,0,0,0,0,0,0,0,0,0,1,0,0,0,0,0,-0.0513916,-0.9973145,0.0513916,0,0,0,0,0,0
3.599997,0.8930173,0.740844,-0.5453978,0.9673843,0,0,0,0,0,0,0,0,0,0,0,0,0,0,0,0,0,-0.04553223,-1.049438,-0.0411377,0,0,0,0,0,0
3.609997,0.8930173,0.740844,-0.5614042,0.9595633,0,0,0,0,0,0,0,0,0,0,0,0,0,0,0,0,0,-0.09619141,-1.224854,-0.05090332,0,0,0,0,0,0
3.619997,0.8930173,0.740844,-0.5685782,0.9423288,0,0,0,0,0,0,0,0,0,0,0,0,0,0,0,0,0,-0.1158447,-1.01416,0.0760498,0,0,0,0,0,0
3.629997,0.8930173,0.740844,-0.5602909,0.9417656,0,0,0,0,0,0,0,0,0,0,0,0,0,0,0.05374826,-0.000922717,-0.003921547,-0.1315918,-1.161499,0.02050781,0,0,0,0,0,0
3.639997,0.8842907,0.7402433,-0.5602909,0.9417656,0,0,0,0,0,0,0,0,0,0,0,0,0,0,0,0,0,-0.1099854,-1.075439,0.04443359,0,0,0,0,0,0
3.649997,0.8767824,0.7566752,-0.5047147,0.9736622,0,0,0,0,0,0,0,0,0,0,0,0,0,0,0,0,0,-0.0703125,-1.053223,0.01318359,0,0,0,0,0,0
3.659997,0.8692912,0.7731484,-0.4412105,1,0,0,0,0,0,0,0,0,0,0,0,0,0,0,-0.050481,0.02024238,0.04348363,-0.08410645,-1.124878,0.2333984,0,0,0,0,0,0
3.669997,0.8692912,0.7731484,-0.3847782,1,0,0,0,0,0,0,0,0,0,0,0,0,0,0,0,0,0,-0.1298828,-1.059326,0.07971191,0,0,0,0,0,0
3.679997,0.8692912,0.7731484,-0.2642672,1,0,0,0,0,0,0,0,0,0,0,0,1,0,0,0,0,0,-0.1154785,-1.0802,0.0925293,0,0,0,0,0,0
3.689997,0.8692912,0.7731484,-0.1690417,1,0,0,0,0,0,0,0,0,0,0,0,1,0,0,0,0,0,-0.1290283,-0.9746094,0.06835938,0,0,0,0,0,0
3.699997,0.8692912,0.7731484,-0.1374799,1,0,0,0,0,0,0,0,0,0,0,0,1,0,0,0,0,0,0.01257324,-0.8505859,0.02087402,0,0,0,0,0,0
3.709997,0.8692912,0.7731484,-0.1217254,1,0,0,0,0,0,0,0,0,0,0,0,1,0,0,0,0,0,0.1080322,-0.9787598,-0.1523438,0,0,0,0,0,0
3.719997,0.8692912,0.7731484,-0.1217254,1,0,0,0,0,0,0,0,0,0,0,0,1,0,0,-0.09721339,-0.02274144,-0.007747083,0.04956055,-0.9840088,-0.2110596,0,0,0,0,0,0
3.729997,0.8606049,0.772543,-0.1215596,0.9920828,0,0,0,0,0,0,0,0,0,0,0,1,0,0,0,0,0,-0.005004883,-0.8868408,-0.1350098,0,0,0,0,0,0
3.739997,0.8692912,0.7731484,-0.1264832,0.6251883,0,0,0,0,0,0,0,0,0,0,0,1,0,0,0,0,0,0.08972168,-0.9277344,0.0007324219,0,0,0,0,0,0
3.749997,0.8606049,0.772543,-0.09092221,0.1793871,0,0,0,0,0,0,0,0,0,0,0,0,0,0,0,0,0,0.04003906,-0.8099365,-0.08117676,0,0,0,0,0,0
3.759997,0.8692912,0.7731484,0,0,0,0,0,0,0,0,0,0,0,0,0,0,0,0,0.1391976,0.0634761,0.08146932,-0.04833984,-0.9219971,-0.01452637,0,0,0,0,0,0
3.769997,0.8692912,0.7731484,0,0,0,0,0,0,0,0,0,0,0,0,0,0,0,0,0,0,0,-0.2034912,-1.037354,0.01647949,0,0,0,0,0,0
3.779997,0.8779858,0.77375,0,0,0,0,0,0,0,0,0,0,0,0,0,0,0,0,0,0,0,-0.2272949,-1.178345,0.1433105,0,0,0,0,0,0
3.789997,0.8948063,0.7664036,0,0,0,0,0,0,0,0,0,0,0,0,0,0,0,0,-0.04382905,0.04705856,0.0777389,-0.09936523,-1.127075,0.0006103516,0,0,0,0,0,0
3.799997,0.9023457,0.7499495,0,0,0,0,0,0,0,0,0,0,0,0,0,0,0,0,0,0,0,-0.07556152,-1.105713,-0.04052734,0,0,0,0,0,0
3.809997,0.9180699,0.725636,0,0,0,0,0,0,0,0,0,0,0,0,0,0,0,0,0,0,0,-0.1113281,-1.118164,0.0715332,0,0,0,0,0,0
3.819997,0.9256665,0.7092769,0,0,0,0,0,0,0,0,0,0,0,0,0,0,0,0,0,0,0,-0.06921387,-1.119019,0.09729004,0,0,0,0,0,0
3.829997,0.9338674,0.7014025,0,0,0,0,0,0,0,0,0,0,0,0,0,1,0,0,0,0,0,-0.06408691,-1.036743,-0.1147461,0,0,0,0,0,0
3.839997,0.9415066,0.6850963,-0.05313389,0.06831501,0,0,0,0,0,0,0,0,0,0,0,1,0,0,0,0,0,-0.01672363,-0.9483643,-0.1998291,0,0,0,0,0,0
3.849997,0.9480243,0.6520168,-0.1131416,0.1785123,0,0,0,0,0,0,0,0,0,0,0,1,0,0,0,0,0,-0.05126953,-0.7382813,-0.09094238,0,0,0,0,0,0
3.859997,0.9784681,0.5790934,-0.1831705,0.2732544,0,0,0,0,0,0,0,0,0,0,0,1,0,0,0,0,0,0.192627,-0.8399658,-0.1932373,0,0,0,0,0,0
3.869997,0.9975828,0.4570599,-0.2233619,0.2661985,0,0,0,0,0,0,0,0,0,0,0,1,0,0,0.0467324,-0.02149191,-0.04798193,0.02478027,-0.9279785,-0.1903076,0,0,0,0,0,0
3.879997,0.9821944,0.3431763,-0.2377221,0.1966343,0,0,0,0,0,0,0,0,0,0,0,1,0,0,0,0,0,-0.07177734,-0.921875,-0.06518555,0,0,0,0,0,0
3.889997,0.8542656,0.126416,-0.2351512,0.08378949,0,0,0,0,0,0,0,0,0,0,0,1,0,0,0.1327,0.009996235,-0.02174181,-0.02563477,-1.058716,-0.01635742,0,0,0,0,0,0
3.899997,0.7330641,-0.06325933,-0.2249135,0,0,0,0,0,0,0,0,0,0,0,0,0,0,0,0.1416966,-0.01099586,-0.01599398,-0.03686523,-1.016479,-0.001220703,0,0,0,0,0,0
3.909997,0.6369509,-0.1710668,-0.2268512,-0.03389731,0,0,0,0,0,0,0,0,0,0,0,0,0,0,0,0,0,-0.09020996,-1.067139,0.05432129,0,0,0,0,0,0
3.919997,0.5185741,-0.3182972,-0.2351512,-0.08378949,0,0,0,0,0,0,0,0,0,0,0,0,0,0,0,0,0,-0.1762695,-1.012939,0.1077881,0,0,0,0,0,0
3.929997,0.3778333,-0.4343317,-0.2376654,-0.0956125,0,0,0,0,0,0,0,0,0,0,0,0,0,0,0.008304453,-0.01291804,-0.07520143,-0.1711426,-1.09314,0.01220703,0,0,0,0,0,0
3.939997,0.2733644,-0.5218775,-0.2376654,-0.0956125,0,0,0,0,0,0,0,0,0,0,0,0,0,0,0,0,0,-0.1474609,-1.119019,-0.03076172,0,0,0,0,0,0
3.949997,0.09145411,-0.6694441,-0.2551305,-0.09812711,0,0,0,0,0,0,0,0,0,0,0,0,0,0,-0.02649003,-0.0592277,-0.07847045,-0.1262207,-1.031372,0.02233887,0,0,0,0,0,0
3.959997,-0.07890245,-0.7702382,-0.2705285,-0.08827771,0,0,0,0,0,0,0,0,0,0,0,0,0,0,0,0,0,-0.03942871,-0.9884033,0.04101563,0,0,0,0,0,0
3.969997,-0.4566368,-0.8547304,-0.2807163,-0.01984863,0,0,0,0,0,0,0,0,0,0,0,0,0,0,0,0,0,0.03393555,-0.9552002,-0.02758789,0,0,0,0,0,0
3.979997,-0.82217,-0.7189022,-0.2758106,0.06539839,0,0,0,0,0,0,0,0,0,0,0,0,0,0,-0.04398344,-0.06547534,-0.002748965,0.03613281,-1.119751,0.3018799,0,0,0,0,0,0
3.989997,-0.9009549,-0.6072515,-0.2828107,0.1518247,0,0,0,0,0,0,0,0,0,0,0,0,0,0,0,0,0,-0.03918457,-1.101563,0.1566162,0,0,0,0,0,0
3.999997,-0.9091914,-0.5995105,-0.3145248,0.3686366,0,0,0,0,0,0,0,0,0,0,0,0,0,0,0,0,0,-0.09521484,-1.052979,-0.07275391,0,0,0,0,0,0
4.009997,-0.9174469,-0.5917731,-0.2803303,0.6989567,0,0,0,0,0,0,0,0,0,0,0,1,0,0,-0.1956923,-0.03124078,0.01724491,-0.002075195,-0.9882813,-0.2032471,0,0,0,0,0,0
4.019997,-0.9174469,-0.5917731,-0.2270665,0.8582345,0,0,0,0,0,0,0,0,0,0,0,1,0,0,0,0,0,0.04125977,-0.8922119,-0.1881104,0,0,0,0,0,0
4.029997,-0.9174469,-0.5917731,-0.1206902,0.9460554,0,0,0,0,0,0,0,0,0,0,0,1,0,0,0,0,0,0.01062012,-0.8632813,-0.2073975,0,0,0,0,0,0
4.039998,-0.8951521,-0.648488,-0.02532166,0.6402763,0,0,0,0,0,0,0,0,0,0,0,1,0,0,-0.01824313,-0.04473316,-0.08521792,-0.01623535,-0.9061279,-0.2727051,0,0,0,0,0,0
4.049998,-0.8147796,-0.7352889,0,0,0,0,0,0,0,0,0,0,0,0,0,1,0,0,0,0,0,-0.05541992,-0.9772949,-0.1390381,0,0,0,0,0,0
4.059998,-0.6167826,-0.919205,0,0,0,0,0,0,0,0,0,0,0,0,0,1,0,0,0,0,0,-0.01818848,-0.869751,-0.1768799,0,0,0,0,0,0
4.069998,-0.3686016,-1,0,0,0,0,0,0,0,0,0,0,0,0,0,1,0,0,0,0,0,0.03369141,-0.8886719,-0.04504395,0,0,0,0,0,0
4.079998,-0.2006854,-1,0,0,0,0,0,0,0,0,0,0,0,0,0,0,0,0,0.104267,-0.08627404,0.02791219,0.09179688,-0.9067383,-0.06542969,0,0,0,0,0,0
4.089999,-0.1296006,-1,0,0,0,0,0,0,0,0,0,0,0,0,0,0,0,0,0,0,0,0.02697754,-0.9570313,-0.04064941,0,0,0,0,0,0
4.099999,-0.06669273,-1,0,0,0,0,0,0,0,0,0,0,0,0,0,0,0,0,0,0,0,-0.08630371,-1.03772,0.03894043,0,0,0,0,0,0
4.109999,-0.02745281,-1,0,0,0,0,0,0,0,0,0,0,0,0,0,0,0,0,0.08971623,-0.04423334,0.100962,-0.1157227,-1.031372,0.08215332,0,0,0,0,0,0
4.119999,0,-1,0,0,0,0,0,0,0,0,0,0,0,0,0,0,0,0,0,0,0,-0.1175537,-1.125732,0.04821777,0,0,0,0,0,0
4.13,0.035298,-1,0,0,0,0,0,0,0,0,0,0,0,0,0,0,0,0,0,0,0,-0.1314697,-1.15625,0.01525879,0,0,0,0,0,0
4.14,0.05099206,-1,0,0,0,0,0,0,0,0,0,0,0,0,0,0,0,0,-0.03598645,-0.002998871,0.01749341,-0.142334,-1.179932,-0.03662109,0,0,0,0,0,0
4.15,0.05099206,-1,0,0,0,0,0,0,0,0,0,0,0,0,0,0,0,0,0,0,0,-0.03833008,-0.8770752,-0.02941895,0,0,0,0,0,0
4.16,0.05099206,-1,0,0,0,0,0,0,0,0,0,1,0,0,0,0,0,0,0,0,0,0.01501465,-0.9368896,-0.1121826,0,0,0,0,0,0
4.170001,0.05099206,-1,0,0,0,0,0,0,0,0,0,1,0,0,0,0,0,0,0.06997365,0.01424464,-0.0379857,0.05786133,-0.9681396,-0.1896973,0,0,0,0,0,0
4.180001,0.05099206,-1,0,0,0,0,0,0,0,0,0,1,0,0,0,0,0,0,0,0,0,0.05456543,-1.019287,-0.1166992,0,0,0,0,0,0
4.190001,0.003921574,-1,0,0,0,0,0,0,0,0,0,1,0,0,0,0,0,0,0,0,0,0.04492188,-1.029053,-0.04760742,0,0,0,0,0,0
4.200001,-0.1059862,-1,0,0,0,0,0,0,0,0,0,1,0,0,0,0,0,0,0.0847181,0.007247271,0.01574407,-0.01123047,-1.084106,0.01306152,0,0,0,0,0,0
4.210001,-0.2006854,-1,0,0,0,0,0,0,0,0,0,1,0,0,0,0,0,0,0,0,0,-0.06542969,-1.079712,0.0246582,0,0,0,0,0,0
4.220002,-0.3924417,-1,0,0,0,0,0,0,0,0,0,1,0,0,0,0,0,0,0,0,0,-0.1165771,-1.138916,0.03112793,0,0,0,0,0,0
4.230002,-0.6609539,-0.8350974,0,0,0,0,0,0,0,0,0,1,0,0,0,0,0,0,-0.03667153,-0.02052683,-0.04382132,-0.09436035,-1.05481,-0.006713867,0,0,0,0,0,0
4.240002,-0.849409,-0.6202661,0,0,0,0,0,0,0,0,0,1,0,0,0,0,0,0,0,0,0,-0.05566406,-1.049438,0.02819824,0,0,0,0,0,0
4.250002,-1,-0.2802319,0,0,0,0,0,0,0,0,0,1,0,0,0,0,0,0,0,0,0,-0.02478027,-0.9547119,-0.03881836,0,0,0,0,0,0
4.260003,-1,-0.2403741,0,0,0,0,0,0,0,0,0,0,0,0,0,0,0,0,0,0,0,-0.1567383,-0.8239746,-0.0949707,0,0,0,0,0,0
4.270003,-1,-0.2324234,0,0,0,0,0,0,0,0,0,0,0,0,0,0,0,0,0,0,0,-0.1627197,-0.9350586,0.01123047,0,0,0,0,0,0
4.280003,-1,-0.2324234,0,0,0,0,0,0,0,0,0,0,0,0,0,0,0,0,0.07404803,-0.02006909,-0.009457849,0.0123291,-0.9724121,0.04785156,0,0,0,0,0,0
4.290003,-1,-0.2324234,0,0,0,0,0,0,0,0,0,0,0,0,0,0,0,0,0,0,0,0.03747559,-1.000488,0.0123291,0,0,0,0,0,0
4.300004,-1,-0.2324234,0,0,0,0,0,0,0,0,0,0,0,0,0,0,0,0,0,0,0,0.03857422,-1.000732,0.04199219,0,0,0,0,0,0
4.310004,-1,-0.2086106,0,0,0,0,0,0,0,0,0,0,0,0,0,0,0,0,0.04698231,0.04948137,0.08771697,0.01867676,-1.036743,0.05090332,0,0,0,0,0,0
4.320004,-1,-0.1769445,0,0,0,0,0,0,0,0,0,0,0,0,0,0,0,0,0,0,0,-0.003173828,-1.047729,0.0123291,0,0,0,0,0,0
4.330004,-1,-0.113854,0,0,0,0,0,0,0,0,0,0,0,0,0,0,0,0,0,0,0,-0.06677246,-0.9560547,-0.0300293,0,0,0,0,0,0
4.340004,-1,-0.05099206,0,0,0,0,0,0,0,0,0,0,0,0,0,0,0,0,0,0,0,-0.1400146,-0.9847412,-0.006958008,0,0,0,0,0,0
4.350005,-1,0,0,0,0,0,0,0,0,0,0,0,0,0,0,0,0,0,0,0,0,-0.1445313,-1.049316,-0.02355957,0,0,0,0,0,0
4.360005,-1,0.09812176,0,0,0,0,0,0,0,0,0,0,0,0,0,0,0,0,-0.02849159,0.03124078,-0.004498673,-0.0826416,-1.14209,-0.06750488,0,0,0,0,0,0
4.370005,-1,0.2324234,0,0,0,0,0,0,0,0,0,0,0,0,0,0,0,0,0,0,0,-0.03649902,-0.9960938,0.01904297,0,0,0,0,0,0
4.380005,-1,0.2962267,0,0,0,0,0,0,0,0,0,0,0,0,0,0,0,0,0,0,0,-0.01013184,-1.020996,-0.07458496,0,0,0,0,0,0
4.390006,-1,0.3605264,-0.1865716,0.1150099,0,0,0,0,0,0,0,0,0,0,0,1,0,0,0,0,0,-0.06945801,-1.012817,-0.06604004,0,0,0,0,0,0
4.400006,-1,0.4009901,-0.4111062,0.328194,0,0,0,0,0,0,0,0,0,0,0,1,0,0,0,0,0,-0.08813477,-1.074341,0.009033203,0,0,0,0,0,0
4.410006,-1,0.4416777,-0.7333636,0.7888614,0,0,0,0,0,0,0,0,0,0,0,1,0,0,0,0,0,-0.04956055,-0.8477783,0.06530762,0,0,0,0,0,0
4.420006,-1,0.4743927,-0.7536087,0.8333557,0,0,0,0,0,0,0,0,0,0,0,1,0,0,0.04298382,0.02349116,0.04548287,0.1651611,-1.034546,-0.1425781,0,0,0,0,0,0
4.430007,-1,0.4990265,-0.7456988,0.8414034,0,0,0,0,0,0,0,0,0,0,0,1,0,0,0,0,0,0.07019043,-0.9523926,-0.07653809,0,0,0,0,0,0
4.440007,-1,0.540269,-0.7141563,0.8737444,0,0,0,0,0,0,0,0,0,0,0,1,0,0,0,0,0,0.01745605,-0.9714355,-0.05639648,0,0,0,0,0,0
4.450007,-1,0.5806994,-0.6418867,0.9209678,0,0,0,0,0,0,0,0,0,0,0,1,0,0,0.04405973,0.05397894,0.004382906,-0.05358887,-0.9926758,0.0435791,0,0,0,0,0,0
4.460007,-0.9973595,0.5968135,-0.5614042,0.9595633,0,0,0,0,0,0,0,0,0,0,0,1,0,0,0,0,0,-0.03015137,-1.070435,-0.01513672,0,0,0,0,0,0
4.470007,-0.9900852,0.6213085,-0.4652353,0.9980689,0,0,0,0,0,0,0,0,0,0,0,1,0,0,0,0,0,-0.05517578,-1.02832,-0.1159668,0,0,0,0,0,0
4.480008,-0.9906307,0.6296722,-0.4253754,1,0,0,0,0,0,0,0,0,0,0,0,1,0,0,0,0,0,-0.07397461,-1.016113,-0.1503906,0,0,0,0,0,0
4.490008,-0.9906307,0.6296722,-0.3524597,1,0,0,0,0,0,0,0,0,0,0,0,1,0,0,0,0,0,-0.114502,-0.9820557,-0.06201172,0,0,0,0,0,0
4.500008,-0.9906307,0.6296722,-0.247931,0.8048221,0,0,0,0,0,0,0,0,0,0,0,1,0,0,0,0,0,0.01379395,-0.8977051,-0.04907227,0,0,0,0,0,0
4.510008,-0.9900852,0.6213085,-0.1863108,0.4505334,0,0,0,0,0,0,0,0,0,0,0,0,0,0,0.1659375,-0.06322619,-0.03323749,-0.02856445,-0.9030762,-0.0480957,0,0,0,0,0,0
4.520009,-0.9978961,0.6051498,-0.1248982,0.2046205,0,0,0,0,0,0,0,0,0,0,0,0,0,0,0,0,0,-0.1451416,-0.9978027,-0.008911133,0,0,0,0,0,0
4.530009,-1,0.5734303,0,0,0,0,0,0,0,0,0,0,0,0,0,0,0,0,0,0,0,-0.1889648,-1.135742,0.1693115,0,0,0,0,0,0
4.540009,-1,0.5320019,0,0,0,0,0,0,0,0,0,0,0,0,0,0,0,0,0.03298758,-0.02149191,0.007747083,-0.2718506,-1.092163,0.2408447,0,0,0,0,0,0
4.550009,-1,0.5154955,0,0,0,0,0,0,0,0,0,0,0,0,0,0,0,0,0,0,0,-0.1542969,-1.148804,0.1895752,0,0,0,0,0,0
4.560009,-1,0.4908059,0,0,0,0,0,0,0,0,0,0,0,0,0,0,0,0,0,0,0,-0.06347656,-1.102661,0.1289063,0,0,0,0,0,0
4.57001,-1,0.4662001,0,0,0,0,0,0,0,0,0,0,0,0,0,0,0,0,0,0,0,-0.0826416,-1.05957,0.01965332,0,0,0,0,0,0
4.58001,-1,0.4580168,0,0,0,0,0,0,0,0,0,0,0,0,0,0,0,0,0,0,0,-0.03857422,-1.082153,0.05786133,0,0,0,0,0,0
4.59001,-1,0.4416777,0.06028377,0.3839124,0,0,0,0,0,0,0,0,0,0,0,1,0,0,0,0,0,-0.08166504,-1.030029,-0.03283691,0,0,0,0,0,0
4.60001,-1,0.4172379,0.1500499,0.8733671,0,0,0,0,0,0,0,0,0,0,0,1,0,0,-0.1494801,0,-0.01384075,0.02160645,-0.9440918,-0.2121582,0,0,0,0,0,0
4.610011,-1,0.3847782,0.1769445,1,0,0,0,0,0,0,0,0,0,0,0,1,0,0,-0.06781969,-0.02629743,-0.04106091,0.1712646,-0.8123779,-0.3116455,0,0,0,0,0,0
4.620011,-1,0.3605264,0.1769445,1,0,0,0,0,0,0,0,0,0,0,0,1,0,0,0,0,0,0.1923828,-0.8736572,-0.03759766,0,0,0,0,0,0
4.630011,-1,0.3524597,0.1690417,1,0,0,0,0,0,0,0,0,0,0,0,1,0,0,0,0,0,0.1611328,-0.9615479,-0.137207,0,0,0,0,0,0
4.640011,-1,0.3524597,0.1690417,1,0,0,0,0,0,0,0,0,0,0,0,1,0,0,0,0,0,0.00793457,-0.8908691,-0.1345215,0,0,0,0,0,0
4.650012,-1,0.3444016,0.1532514,1,0,0,0,0,0,0,0,0,0,0,0,1,0,0,0,0,0,-0.02026367,-0.9249268,-0.1303711,0,0,0,0,0,0
4.660012,-1,0.3202776,0.07759952,0.705786,0,0,0,0,0,0,0,0,0,0,0,1,0,0,0,0,0,-0.01196289,-0.953125,-0.03259277,0,0,0,0,0,0
4.670012,-1,0.3122526,-0.02138438,0.345205,0,0,0,0,0,0,0,0,0,0,0,0,0,0,0.1826812,-0.002499059,0.02773956,-0.04309082,-0.9665527,-0.04418945,0,0,0,0,0,0
4.680012,-1,0.3122526,-0.03393848,0.08888649,0,0,0,0,0,0,0,0,0,0,0,0,0,0,0,0,0,-0.07043457,-1.006836,-0.02319336,0,0,0,0,0,0
4.690012,-1,0.3122526,0,0,0,0,0,0,0,0,0,0,0,0,0,0,0,0,0,0,0,-0.1746826,-1.154053,0.1191406,0,0,0,0,0,0
4.700013,-1,0.3122526,0,0,0,0,0,0,0,0,0,0,0,0,0,0,0,0,0.042484,-0.003998494,0.007996988,-0.2907715,-1.057617,0.1694336,0,0,0,0,0,0
4.710013,-1,0.3122526,0,0,0,0,0,0,0,0,0,0,0,0,0,0,0,0,0,0,0,-0.2355957,-1.180908,0.1407471,0,0,0,0,0,0
4.720013,-1,0.2962267,0,0,0,0,0,0,0,0,0,0,0,0,0,0,0,0,0,0,0,-0.1137695,-1.119141,0.1162109,0,0,0,0,0,0
4.730013,-1,0.2962267,0,0,0,0,0,0,0,0,0,0,0,0,0,0,0,0,0,0,0,-0.06713867,-1.079224,0.08703613,0,0,0,0,0,0
4.740014,-1,0.2962267,0,0,0,0,0,0,0,0,0,0,0,0,0,0,0,0,0,0,0,-0.0838623,-1.106689,0.06152344,0,0,0,0,0,0
4.750014,-1,0.2962267,0,0,0,0,0,0,0,0,0,0,0,0,0,0,0,0,0,0,0,-0.002319336,-1.016357,-0.0201416,0,0,0,0,0,0
4.760014,-1,0.2962267,0,0,0,0,0,0,0,0,0,0,0,0,0,1,0,0,0,0,0,-0.03356934,-1.018555,-0.02099609,0,0,0,0,0,0
4.770014,-1,0.2962267,0,0,0,0,0,0,0,0,0,0,0,0,0,1,0,0,0,0,0,0.04443359,-0.9857178,-0.04455566,0,0,0,0,0,0
4.780015,-1,0.2962267,0,0,0,0,0,0,0,0,0,0,0,0,0,1,0,0,0,0,0,0.06604004,-0.854126,-0.1350098,0,0,0,0,0,0
4.790015,-1,0.3042357,0,0,0,0,0,0,0,0,0,0,0,0,0,1,0,0,0,0,0,0.01953125,-0.8165283,-0.1821289,0,0,0,0,0,0
4.800015,-1,0.3042357,0,0,0,0,0,0,0,0,0,0,0,0,0,1,0,0,0,0,0,0.008544922,-0.9071045,-0.2454834,0,0,0,0,0,0
4.810015,-1,0.3042357,0,0,0,0,0,0,0,0,0,0,0,0,0,1,0,0,0,0,0,-0.05688477,-0.9417725,-0.1306152,0,0,0,0,0,0
4.820015,-1,0.3042357,0,0,0,0,0,0,0,0,0,0,0,0,0,1,0,0,0,0,0,-0.04504395,-0.9793701,-0.05371094,0,0,0,0,0,0
4.830016,-1,0.3122526,0,0,0,0,0,0,0,0,0,0,0,0,0,1,0,0,0,0,0,-0.01501465,-0.9346924,-0.03869629,0,0,0,0,0,0
4.840016,-1,0.3847782,0,0,0,0,0,0,0,0,0,0,0,0,0,0,0,0,0,0,0,-0.0234375,-1.02124,-0.006225586,0,0,0,0,0,0
4.850016,-1,0.4825947,0,0,0,0,0,0,0,0,0,0,0,0,0,0,0,0,0,0,0,-0.0480957,-1.049927,0.01245117,0,0,0,0,0,0
4.860016,-0.9338674,0.7014025,0,0,0,0,0,0,0,0,0,0,0,0,0,0,0,0,0,0,0,-0.07495117,-1.094116,0.05737305,0,0,0,0,0,0
4.870017,-0.7075,0.8993645,0,0,0,0,0,0,0,0,0,0,0,0,0,0,0,0,0,0,0,-0.06958008,-1.155884,0.1713867,0,0,0,0,0,0
4.880017,-0.1838521,0.9662017,0.09986624,0.02200443,0,0,0,0,0,0,0,0,0,0,0,0,0,0,-0.2663797,0.1267403,0.2381209,-0.1229248,-1.174316,0.1530762,0,0,0,0,0,0
4.890017,0.2549741,0.9689015,0.3491494,0.2447309,0,0,0,0,0,0,0,0,0,0,0,1,0,0,0,0,0,-0.1826172,-1.224243,0.1875,0,0,0,0,0,0
4.900017,0.6051498,0.9978961,0.5417393,0.6023535,0,0,0,0,0,0,0,0,0,0,0,1,0,0,-0.2928897,0.07597139,0.08946632,-0.2106934,-0.876709,-0.185791,0,0,0,0,0,0
4.910017,0.7487553,0.8848926,0.5705693,0.7413519,0,0,0,0,0,0,0,0,0,0,0,1,0,0,0,0,0,-0.1184082,-0.8599854,-0.2811279,0,0,0,0,0,0
4.920018,0.8117793,0.8117793,0.5810761,0.8814964,0,0,0,0,0,0,0,0,0,0,0,1,0,0,0,0,0,-0.03845215,-0.9007568,-0.1442871,0,0,0,0,0,0
4.930018,0.8290224,0.8130026,0.6023977,0.9534637,0,0,0,0,0,0,0,0,0,0,0,1,0,0,0,0,0,0.1958008,-0.7930908,-0.2714844,0,0,0,0,0,0
4.940018,0.8284124,0.8044004,0.6023977,0.9534637,0,0,0,0,0,0,0,0,0,0,0,1,0,0,0,0,0,0.1148682,-0.8929443,-0.1634521,0,0,0,0,0,0
4.950018,0.836441,0.7964199,0.5995105,0.9091914,0,0,0,0,0,0,0,0,0,0,0,1,0,0,0,0,0,0.05505371,-0.8634033,-0.1025391,0,0,0,0,0,0
4.960019,0.836441,0.7964199,0.5774578,0.724729,0,0,0,0,0,0,0,0,0,0,0,1,0,0,0.1741844,0.02024238,0.005747836,0.05212402,-0.9102783,-0.04321289,0,0,0,0,0,0
4.970019,0.836441,0.7964199,0.5209137,0.5583894,0,0,0,0,0,0,0,0,0,0,0,1,0,0,0,0,0,0.06506348,-0.8919678,-0.06604004,0,0,0,0,0,0
4.980019,0.836441,0.7964199,0.4004949,0.311496,0,0,0,0,0,0,0,0,0,0,0,1,0,0,0,0,0,-0.009643555,-0.921875,-0.07397461,0,0,0,0,0,0
4.990019,0.836441,0.7964199,0.2251393,0.07681223,0,0,0,0,0,0,0,0,0,0,0,0,0,0,0.249656,-0.01824313,0.03723598,-0.06555176,-1.035889,-0.04455566,0,0,0,0,0,0
5.00002,0.836441,0.7964199,0.08782104,0.01078504,0,0,0,0,0,0,0,0,0,0,0,0,0,0,0,0,0,-0.09411621,-1.193726,0.05407715,0,0,0,0,0,0
5.01002,0.8031714,0.8111632,0,0,0,0,0,0,0,0,0,0,0,0,0,0,0,0,0,0,0,-0.2817383,-1.221924,0.1962891,0,0,0,0,0,0
5.02002,0.6833416,0.9151183,0,0,0,0,0,0,0,0,0,0,0,0,0,0,0,0,-0.03068034,-0.005305622,0.03367917,-0.1716309,-1.208252,0.1594238,0,0,0,0,0,0
5.03002,0.579634,0.9873765,0,0,0,0,0,0,0,0,0,0,0,0,0,0,0,0,0,0,0,-0.159668,-1.175659,0.0916748,0,0,0,0,0,0
5.04002,0.3928797,1,0,0,0,0,0,0,0,0,0,0,0,0,0,0,0,0,-0.1129575,-0.001999247,-0.007247271,-0.09472656,-1.125122,0.001098633,0,0,0,0,0,0
5.050021,0.2882255,1,0,0,0,0,0,0,0,0,0,0,0,0,0,0,0,0,0,0,0,-0.07250977,-1.117065,0.04443359,0,0,0,0,0,0
5.060021,0.1296006,1,-0.02103553,0.1799706,0,0,0,0,0,0,0,0,0,0,0,1,0,0,0,0,0,-0.1097412,-1.062134,0.07519531,0,0,0,0,0,0
5.070021,-0.05099206,1,-0.07367668,0.3940101,0,0,0,0,0,0,0,0,0,0,0,1,0,0,-0.2748965,0.0124953,-0.08446819,-0.0008544922,-0.9456787,0.09008789,0,0,0,0,0,0
5.080021,-0.1217254,1,-0.08995874,0.4497937,0,0,0,0,0,0,0,0,0,0,0,1,0,0,-0.2260657,0.0110726,-0.08396724,-0.01000977,-0.8814697,-0.03845215,0,0,0,0,0,0
5.090022,-0.4091095,1,-0.1984138,0.504737,0,0,0,0,0,0,0,0,0,0,0,1,0,0,0,0,0,0.1005859,-0.8372803,-0.2103271,0,0,0,0,0,0
5.100022,-0.5962749,0.9884557,-0.2541489,0.4168041,0,0,0,0,0,0,0,0,0,0,0,1,0,0,0,0,0,-0.02770996,-0.8710938,-0.2524414,0,0,0,0,0,0
5.110022,-0.7481521,0.8761782,-0.2792203,0.2117165,0,0,0,0,0,0,0,0,0,0,0,1,0,0,0.0337373,-0.04873165,-0.05822808,-0.02246094,-0.8858643,-0.09033203,0,0,0,0,0,0
5.120022,-0.8277996,0.7958074,-0.2762679,0.1192314,0,0,0,0,0,0,0,0,0,0,0,1,0,0,0,0,0,-0.06726074,-0.833252,0.02685547,0,0,0,0,0,0
5.130023,-0.9397725,0.6598403,-0.2721735,0.03086503,0,0,0,0,0,0,0,0,0,0,0,1,0,0,0,0,0,-0.001708984,-0.953125,0.04382324,0,0,0,0,0,0
5.140023,-1,0.4825947,-0.2805015,-0.01416674,0,0,0,0,0,0,0,0,0,0,0,0,0,0,0.09046594,-0.009996235,0.0004998118,-0.03430176,-1.004761,0.003417969,0,0,0,0,0,0
5.150023,-1,0.3283107,-0.262609,-0.02487875,0,0,0,0,0,0,0,0,0,0,0,0,0,0,0,0,0,-0.06945801,-1.035767,-0.07788086,0,0,0,0,0,0
5.160023,-1,0.09812176,-0.05249975,-0.009642811,0,0,0,0,0,0,0,0,0,0,0,0,0,0,0,0,0,-0.15271,-1.042114,0.02612305,0,0,0,0,0,0
5.170023,-1,-0.07454614,0,0,0,0,0,0,0,0,0,0,0,0,0,0,0,0,-0.01153396,-0.006228339,-0.00322951,-0.1729736,-1.12085,-0.06518555,0,0,0,0,0,0
5.180024,-1,-0.1374799,0,0,0,0,0,0,0,0,0,0,0,0,0,0,0,0,0,0,0,-0.09228516,-1.181274,-0.04724121,0,0,0,0,0,0
5.190024,-1,-0.2483314,0,0,0,0,0,0,0,0,0,0,0,0,0,0,0,0,0,0,0,-0.03869629,-1.036499,0.00793457,0,0,0,0,0,0
5.200024,-1,-0.3847782,0,0,0,0,0,0,0,0,0,0,0,0,0,0,0,0,-0.06997365,0.002499059,-0.03623636,-0.07678223,-1.130859,0.001586914,0,0,0,0,0,0
5.210024,-0.9800786,-0.4642477,-0.009199293,0.01399892,0,0,0,0,0,0,0,0,0,0,0,0,0,0,0,0,0,-0.06689453,-1.111084,0.001464844,0,0,0,0,0,0
5.220025,-0.9097829,-0.6078463,-0.07994545,0.2088897,0,0,0,0,0,0,0,0,0,0,0,1,0,0,0,0,0,-0.08789063,-1.117188,0.0345459,0,0,0,0,0,0
5.230025,-0.8215328,-0.7104076,-0.1109005,0.3707245,0,0,0,0,0,0,0,0,0,0,0,1,0,0,0,0,0,-0.01086426,-0.980957,-0.09643555,0,0,0,0,0,0
5.240025,-0.6233535,-0.893341,-0.1239888,0.5703484,0,0,0,0,0,0,0,0,0,0,0,1,0,0,0,0,0,-0.02990723,-0.8041992,-0.0802002,0,0,0,0,0,0
5.250025,-0.2962267,-1,-0.1272439,0.6434905,0,0,0,0,0,0,0,0,0,0,0,1,0,0,-0.04423695,-0.01199646,-0.08122603,0.1143799,-0.8144531,-0.2166748,0,0,0,0,0,0
5.260026,-0.05099206,-1,-0.1276122,0.6526453,0,0,0,0,0,0,0,0,0,0,0,1,0,0,0,0,0,0.0456543,-0.8969727,-0.206665,0,0,0,0,0,0
5.270026,0.2562958,-1,-0.1188104,0.6156538,0,0,0,0,0,0,0,0,0,0,0,1,0,0,0,0,0,0.01550293,-1.001343,-0.161499,0,0,0,0,0,0
5.280026,0.433522,-1,-0.09428346,0.5412569,0,0,0,0,0,0,0,0,0,0,0,1,0,0,0,0,0,0.02355957,-0.8955078,-0.06860352,0,0,0,0,0,0
5.290026,0.6531526,-0.965704,-0.06621782,0.3752343,0,0,0,0,0,0,0,0,0,0,0,1,0,0,0,0,0,0.0814209,-0.8475342,-0.05895996,0,0,0,0,0,0
5.300026,0.8031714,-0.8111632,-0.04038652,0.1829272,0,0,0,0,0,0,0,0,0,0,0,1,0,0,0,0,0,0.02856445,-0.8203125,-0.0723877,0,0,0,0,0,0
5.310027,0.9203799,-0.6335082,0,0,0,0,0,0,0,0,0,0,0,0,0,0,0,0,0.1854661,0.01914638,0.1058818,-0.0871582,-0.9556885,-0.00378418,0,0,0,0,0,0
5.320027,0.9741862,-0.5129389,0,0,0,0,0,0,0,0,0,0,0,0,0,0,0,0,0,0,0,-0.07580566,-1.032349,-0.1079102,0,0,0,0,0,0
5.330027,1,-0.3686016,0,0,0,0,0,0,0,0,0,0,0,0,0,0,0,0,0,0,0,-0.08398438,-1.084961,-0.0546875,0,0,0,0,0,0
5.340027,1,-0.2403741,0,0,0,0,0,0,0,0,0,0,0,0,0,0,0,0,0,0,0,-0.1114502,-1.197998,0.07580566,0,0,0,0,0,0
5.350028,1,-0.1848525,0,0,0,0,0,0,0,0,0,0,0,0,0,0,0,0,0,0,0,-0.1013184,-1.238037,0.09130859,0,0,0,0,0,0
5.360028,1,-0.09812176,0,0,0,0,0,0,0,0,0,0,0,0,0,0,0,0,0,0,0,-0.06750488,-1.219849,0.06848145,0,0,0,0,0,0
5.370028,1,0.01176485,0,0,0,0,0,0,0,0,0,0,0,0,0,0,0,0,0,0,0,-0.06298828,-1.118164,-0.06408691,0,0,0,0,0,0
5.380028,1,0.06669273,0,0,0,0,0,0,0,0,0,0,0,0,0,0,0,0,0,0,0,-0.05114746,-1.061157,-0.1177979,0,0,0,0,0,0
5.390028,1,0.1374799,0,0,0,0,0,0,0,0,0,0,0,0,0,1,0,0,0,0,0,0.01489258,-1.030029,-0.008178711,0,0,0,0,0,0
5.400029,1,0.2324234,0,0,0,0,0,0,0,0,0,0,0,0,0,1,0,0,0,0,0,0.01843262,-0.9888916,0.02038574,0,0,0,0,0,0
5.410029,1,0.3605264,0,0,0,0,0,0,0,0,0,0,0,0,0,1,0,0,-0.1391976,0.04898156,-0.00549793,0.04614258,-0.9505615,0.01660156,0,0,0,0,0,0
5.420029,1,0.4743927,0,0,0,0,0,0,0,0,0,0,0,0,0,1,0,0,0,0,0,0.05493164,-0.8760986,0.01611328,0,0,0,0,0,0
5.430029,0.9386168,0.6430523,0,0,0,0,0,0,0,0,0,0,0,0,0,1,0,0,0,0,0,-0.006103516,-0.8361816,-0.1464844,0,0,0,0,0,0
5.44003,0.8587738,0.7469335,0,0,0,0,0,0,0,0,0,0,0,0,0,1,0,0,0.05697855,-0.009996235,0.002998871,-0.09790039,-0.8552246,-0.2192383,0,0,0,0,0,0
5.45003,0.8271842,0.7872236,0,0,0,0,0,0,0,0,0,0,0,0,0,1,0,0,0,0,0,-0.1466064,-0.8656006,-0.1732178,0,0,0,0,0,0
5.46003,0.771321,0.8432577,0,0,0,0,0,0,0,0,0,0,0,0,0,1,0,0,0,0,0,-0.09667969,-0.9675293,-0.0802002,0,0,0,0,0,0
5.47003,0.7075,0.8993645,0,0,0,0,0,0,0,0,0,0,0,0,0,1,0,0,0.1707026,-0.05374826,0.02860422,-0.09484863,-0.9720459,-0.01623535,0,0,0,0,0,0
5.480031,0.6604159,0.9485974,0,0,0,0,0,0,0,0,0,0,0,0,0,0,0,0,0,0,0,-0.1087646,-1.022339,-0.005249023,0,0,0,0,0,0
5.490031,0.494375,0.937335,0,0,0,0,0,0,0,0,0,0,0,0,0,0,0,0,0,0,0,-0.152832,-1.095703,-0.02746582,0,0,0,0,0,0
5.500031,0.3282334,0.7206043,0,0,0,0,0,0,0,0,0,0,0,0,0,0,0,0,0,0,0,-0.1828613,-1.117065,0.01428223,0,0,0,0,0,0
5.510031,0.2425112,0.5096249,0,0,0,0,0,0,0,0,0,0,0,0,0,0,0,0,0,0,0,-0.2062988,-1.141724,0.01293945,0,0,0,0,0,0
5.520031,0.1021952,0.1195901,0,0,0,0,0,0,0,0,0,0,0,0,0,0,0,0,0,0,0,-0.194458,-1.137451,-0.07836914,0,0,0,0,0,0
5.530032,0,0,0,0,0,0,0,0,0,0,0,0,0,0,0,0,0,0,0,0,0,0.00390625,-1.229736,0.1514893,0,0,0,0,0,0
5.540032,-0.01276881,-0.01787633,0,0,0,0,0,0,0,0,0,0,0,0,0,0,0,0,0,0,0,0.005126953,-1.08374,0.0814209,0,0,0,0,0,0
5.550032,-0.2132159,-0.436585,0,0,0,0,0,0,0,0,0,0,0,0,0,0,0,0,0,0,0,-0.07141113,-0.9989014,0.09777832,0,0,0,0,0,0
5.560032,-0.3995309,-0.8417302,-0.008026278,0.2434638,0,0,0,0,0,0,0,0,0,0,0,1,0,0,0,0,0,-0.001831055,-1.121338,0.1026611,0,0,0,0,0,0
5.570033,-0.5129389,-0.9741862,0.03378246,0.7694893,0,0,0,0,0,0,0,0,0,0,0,1,0,0,-0.3026361,-0.02024238,-0.06322619,0.1275635,-1.086792,0.1710205,0,0,0,0,0,0
5.580033,-0.5685782,-0.9423288,0.04263622,0.9263688,0,0,0,0,0,0,0,0,0,0,0,1,0,0,0,0,0,0.1785889,-0.8349609,0.2023926,0,0,0,0,0,0
5.590033,-0.62455,-0.9109678,-0.01168013,0.9538772,0,0,0,0,0,0,0,0,0,0,0,1,0,0,0,0,0,0.201416,-0.9437256,-0.07373047,0,0,0,0,0,0
5.600033,-0.6640815,-0.8788145,-0.04242775,0.8986969,0,0,0,0,0,0,0,0,0,0,0,1,0,0,-0.1419466,-0.04873165,-0.08571772,-0.03259277,-0.8704834,-0.3463135,0,0,0,0,0,0
5.610034,-0.6797026,-0.8625466,-0.06325933,0.7330641,0,0,0,0,0,0,0,0,0,0,0,1,0,0,0,0,0,-0.1190186,-0.8656006,-0.3652344,0,0,0,0,0,0
5.620034,-0.6959809,-0.8550623,-0.08787026,0.4133157,0,0,0,0,0,0,0,0,0,0,0,1,0,0,0,0,0,-0.03430176,-0.8150635,-0.3173828,0,0,0,0,0,0
5.630034,-0.6959809,-0.8550623,-0.07159675,0.1901017,0,0,0,0,0,0,0,0,0,0,0,1,0,0,0,0,0,-0.05358887,-0.729126,-0.1561279,0,0,0,0,0,0
5.640034,-0.6875248,-0.8544383,0,0,0,0,0,0,0,0,0,0,0,0,0,1,0,0,0,0,0,0.02612305,-0.9572754,0.008911133,0,0,0,0,0,0
5.650034,-0.5917731,-0.9174469,0,0,0,0,0,0,0,0,0,0,0,0,0,0,0,0,0.1054603,0.001249529,-0.001249529,-0.03845215,-0.9855957,-0.01037598,0,0,0,0,0,0
5.660035,-0.4882966,-0.9726233,0,0,0,0,0,0,0,0,0,0,0,0,0,0,0,0,0,0,0,-0.04907227,-1.082031,-0.02270508,0,0,0,0,0,0
5.670035,-0.3202776,-1,0,0,0,0,0,0,0,0,0,0,0,0,0,0,0,0,0,0,0,-0.08068848,-1.015381,-0.03649902,0,0,0,0,0,0
5.680035,-0.1769445,-1,0,0,0,0,0,0,0,0,0,0,0,0,0,0,0,0,0,0,0,-0.1278076,-1.10437,-0.07763672,0,0,0,0,0,0
5.690035,-0.09812176,-1,0,0,0,0,0,0,0,0,0,0,0,0,0,0,0,0,0,0,0,-0.0949707,-1.179077,-0.05847168,0,0,0,0,0,0
5.700036,-0.035298,-1,0,0,0,0,0,0,0,0,0,0,0,0,0,0,0,0,0,0,0,-0.02331543,-1.03894,-0.006103516,0,0,0,0,0,0
5.710036,0,-1,0,0,0,0,0,0,0,0,0,0,0,0,0,0,0,0,-0.09621377,0.009496424,0.007497177,-0.01745605,-1.234497,0.06396484,0,0,0,0,0,0
5.720036,0.01176485,-1,0,0,0,0,0,0,0,0,0,0,0,0,0,0,0,0,0,0,0,-0.0333252,-1.141846,-0.08496094,0,0,0,0,0,0
5.730036,0.01960851,-1,-0.00011561,0.0001341077,0,0,0,0,0,0,0,0,0,0,0,1,0,0,0,0,0,0.01831055,-1.306885,0.145874,0,0,0,0,0,0
5.740036,0.035298,-1,-0.04446292,0.08727907,0,0,0,0,0,0,0,0,0,0,0,1,0,0,-0.2381603,0.06472563,-0.04798193,0.05456543,-0.8250732,0.1705322,0,0,0,0,0,0
5.750037,0.05099206,-1,-0.06383098,0.1102535,0,0,0,0,0,0,0,0,0,0,0,1,0,0,0,0,0,0.1297607,-0.918335,-0.1242676,0,0,0,0,0,0
5.760037,0.05884144,-1,-0.07462046,0.1149558,0,0,0,0,0,0,0,0,0,0,0,1,0,0,0,0,0,0.02502441,-0.833374,-0.3294678,0,0,0,0,0,0
5.770037,0.05884144,-1,-0.03900439,0.0347877,0,0,0,0,0,0,0,0,0,0,0,1,0,0,0.01499283,-0.049361,-0.05282088,-0.02172852,-0.8509521,-0.3215332,0,0,0,0,0,0
5.780037,0.05884144,-1,0,0,0,0,0,0,0,0,0,0,0,0,0,1,0,0,0,0,0,0.04968262,-0.8587646,-0.2701416,0,0,0,0,0,0
5.790038,0.05884144,-1,0,0,0,0,0,0,0,0,0,0,0,0,0,1,0,0,0,0,0,0.04931641,-0.803833,-0.09130859,0,0,0,0,0,0
5.800038,0.07454614,-1,0,0,0,0,0,0,0,0,0,0,0,0,0,1,0,0,0.1691863,-0.004248401,0.0382356,0.05957031,-0.8806152,-0.0267334,0,0,0,0,0,0
5.810038,0.1217254,-1,0,0,0,0,0,0,0,0,0,0,0,0,0,1,0,0,0,0,0,0.06005859,-0.9082031,-0.0637207,0,0,0,0,0,0
5.820038,0.2086106,-1,0,0,0,0,0,0,0,0,0,0,0,0,0,1,0,0,0.3645719,0.04696284,0.1416958,0.0369873,-0.9367676,-0.05529785,0,0,0,0,0,0
5.830039,0.4908059,-1,0,0,0,0,0,0,0,0,0,0,0,0,0,0,0,0,0.1544418,0.05248024,0.1279518,0.0769043,-1.062622,-0.08947754,0,0,0,0,0,0
5.840039,0.6766679,-0.9409287,0,0,0,0,0,0,0,0,0,0,0,0,0,0,0,0,0,0,0,0.03308105,-1.204224,-0.06274414,0,0,0,0,0,0
5.850039,0.9351605,-0.5929316,0,0,0,0,0,0,0,0,0,0,0,0,0,0,0,0,0,0,0,-0.009765625,-1.126099,0.0357666,0,0,0,0,0,0
5.860039,1,0.02745281,0,0,0,0,0,0,0,0,0,0,0,0,0,0,0,0,-0.06672488,0.08846669,0.1891788,-0.06726074,-1.099243,0.08776855,0,0,0,0,0,0
5.870039,1,0.4253754,0,0,0,0,0,0,0,0,0,0,0,0,0,0,0,0,0,0,0,-0.112793,-1.01709,-0.0300293,0,0,0,0,0,0
5.88004,0.8999631,0.7159706,0,0,0,0,0,0,0,0,0,0,0,0,0,0,0,0,0,0,0,-0.1738281,-1.054443,-0.2858887,0,0,0,0,0,0
5.89004,0.8438712,0.7798811,0,0,0,0,0,0,0,0,0,0,0,0,0,1,0,0,0,0,0,-0.2194824,-1.269531,-0.04260254,0,0,0,0,0,0
5.90004,0.7719339,0.851927,0,0,0,0,0,0,0,0,0,0,0,0,0,1,0,0,0,0,0,-0.3140869,-0.9742432,0.2410889,0,0,0,0,0,0
5.91004,0.7566752,0.8767824,0,0,0,0,0,0,0,0,0,0,0,0,0,1,0,0,0,0,0,-0.08251953,-1.115601,-0.01965332,0,0,0,0,0,0
5.920041,0.7238518,0.8918174,0.04592003,0.04592003,0,0,0,0,0,0,0,0,0,0,0,1,0,0,0,0,0,-0.03027344,-1.037354,-0.2144775,0,0,0,0,0,0
5.930041,0.691781,0.91571,0.211648,0.1511771,0,0,0,0,0,0,0,0,0,0,0,1,0,0,0,0,0,-0.07397461,-0.9929199,-0.1534424,0,0,0,0,0,0
5.940041,0.6755022,0.9233196,0.3170559,0.1569888,0,0,0,0,0,0,0,0,0,0,0,1,0,0,0,0,0,-0.0267334,-0.9753418,-0.1113281,0,0,0,0,0,0
5.950041,0.6598403,0.9397725,0.4649353,0.01672429,0,0,0,0,0,0,0,0,0,0,0,1,0,0,0,0,0,-0.08032227,-1.034302,0.05566406,0,0,0,0,0,0
5.960042,0.6436275,0.9474515,0.6925092,-0.3106933,0,0,0,0,0,0,0,0,0,0,0,1,0,0,-0.1187053,0.01874294,-0.004748212,0.05065918,-0.9049072,-0.1530762,0,0,0,0,0,0
5.970042,0.6358177,0.9557259,0.8606791,-0.6544335,0,0,0,0,0,0,0,0,0,0,0,1,0,0,0,0,0,0.09960938,-0.8392334,-0.248291,0,0,0,0,0,0
5.980042,0.6035143,0.9712184,0.8662497,-0.7305239,0,0,0,0,0,0,0,0,0,0,0,1,0,0,-0.1149567,0.02299134,-0.02923899,-0.2381592,-0.9208984,0.03540039,0,0,0,0,0,0
5.990042,0.579634,0.9873765,0.8581596,-0.7384164,0,0,0,0,0,0,0,0,0,0,0,1,0,0,0,0,0,-0.05224609,-0.9608154,-0.2010498,0,0,0,0,0,0
6.000042,0.563032,0.9863042,0.8185484,-0.7866051,0,0,0,0,0,0,0,0,0,0,0,1,0,0,0,0,0,0.0357666,-0.9400635,-0.2939453,0,0,0,0,0,0
6.010043,0.5552751,0.9947014,0.7463182,-0.8500843,0,0,0,0,0,0,0,0,0,0,0,0,0,0,0.1102647,-0.02606675,0.024452,0.01086426,-0.9400635,-0.1829834,0,0,0,0,0,0
6.020043,0.5469962,0.9941757,0.7056823,-0.8731322,0,0,0,0,0,0,0,0,0,0,0,0,0,0,0,0,0,-0.005249023,-0.9951172,-0.09521484,0,0,0,0,0,0
6.030043,0.547518,1,0.625725,-0.9286237,0,0,0,0,0,0,0,0,0,0,0,0,0,0,0,0,0,-0.05480957,-0.9887695,-0.1011963,0,0,0,0,0,0
6.040043,0.5387272,0.9936524,0.5371357,-0.9668443,0,0,0,0,0,0,0,0,0,0,0,0,0,0,0.07866162,0.02837355,0.0422143,-0.07824707,-1.119141,-0.05859375,0,0,0,0,0,0
6.050044,0.547518,1,0.497528,-0.9910758,0,0,0,0,0,0,0,0,0,0,0,0,0,0,0,0,0,-0.07836914,-1.092529,-0.1037598,0,0,0,0,0,0
6.060044,0.5392466,1,0.4091095,-1,0,0,0,0,0,0,0,0,0,0,0,0,0,0,0,0,0,-0.05700684,-1.014771,-0.1446533,0,0,0,0,0,0
6.070044,0.5392466,1,0.3283107,-1,0,0,0,0,0,0,0,0,0,0,0,0,0,0,0.0592277,0.006497554,0.01649379,-0.01916504,-1.019043,-0.1577148,0,0,0,0,0,0
6.080044,0.5392466,1,0.2403741,-1,0,0,0,0,0,0,0,0,0,0,0,0,0,0,0,0,0,-0.02258301,-0.9827881,-0.1407471,0,0,0,0,0,0
6.090044,0.5232409,1,0.1239335,-0.7623788,0,0,0,0,0,0,0,0,0,0,0,1,0,0,0,0,0,-0.1130371,-1.011475,-0.03210449,0,0,0,0,0,0
6.100045,0.4825947,1,0.01192133,-0.188357,0,0,0,0,0,0,0,0,0,0,0,1,0,0,0,0,0,-0.1362305,-1.126831,0.04309082,0,0,0,0,0,0
6.110045,0.4498426,1,0,0,0,0,0,0,0,0,0,0,0,0,0,1,0,0,-0.0009996236,-0.009996235,-0.04423334,-0.01745605,-0.9445801,-0.1456299,0,0,0,0,0,0
6.120045,0.4172379,1,-0.0281066,0.07840262,0,0,0,0,0,0,0,0,0,0,0,1,0,0,0,0,0,0.01635742,-1.053467,0.001342773,0,0,0,0,0,0
6.130045,0.3444016,1,-0.09474742,0.3331442,0,0,0,0,0,0,0,0,0,0,0,1,0,0,0,0,0,-0.02441406,-1.010986,0.01306152,0,0,0,0,0,0
6.140046,0.2962267,1,-0.1240578,0.4526433,0,0,0,0,0,0,0,0,0,0,0,1,0,0,0,0,0,-0.007080078,-1.015503,-0.07116699,0,0,0,0,0,0
6.150046,0.2403741,1,-0.2032524,0.478849,0,0,0,0,0,0,0,0,0,0,0,1,0,0,0,0,0,0.02685547,-1.014282,-0.1212158,0,0,0,0,0,0
6.160046,0.1690417,1,-0.2808952,0.4542874,0,0,0,0,0,0,0,0,0,0,0,1,0,0,-0.04429041,-0.01614755,-0.04959604,-0.09130859,-0.9760742,-0.0982666,0,0,0,0,0,0
6.170046,0.1217254,1,-0.266822,0.3053987,0,0,0,0,0,0,0,0,0,0,0,1,0,0,0,0,0,-0.1038818,-0.9327393,-0.1647949,0,0,0,0,0,0
6.180047,0.05099206,1,0,0,0,0,0,0,0,0,0,0,0,0,0,1,0,0,0,0,0,-0.1348877,-0.866333,-0.09655762,0,0,0,0,0,0
6.190047,-0.01960851,1,0,0,0,0,0,0,0,0,0,0,0,0,0,1,0,0,0.04659721,-0.04152226,-0.01637823,-0.05834961,-0.9326172,-0.1213379,0,0,0,0,0,0
6.200047,-0.05884144,1,0,0,0,0,0,0,0,0,0,0,0,0,0,1,0,0,0,0,0,-0.03234863,-0.9992676,-0.1320801,0,0,0,0,0,0
6.210047,-0.09812176,1,0,0,0,0,0,0,0,0,0,0,0,0,0,1,0,0,0,0,0,-0.05322266,-0.9334717,-0.04248047,0,0,0,0,0,0
6.220047,-0.1217254,1,0,0,0,0,0,0,0,0,0,0,0,0,0,1,0,0,0.06621967,-0.02548833,0.01574279,-0.01074219,-0.9556885,-0.03039551,0,0,0,0,0,0
6.230048,-0.1217254,1,0,0,0,0,0,0,0,0,0,0,0,0,0,0,0,0,0,0,0,-0.001464844,-1.024414,-0.08276367,0,0,0,0,0,0
6.240048,-0.1217254,1,0,0,0,0,0,0,0,0,0,0,0,0,0,0,0,0,0,0,0,-0.04846191,-1.070068,-0.1109619,0,0,0,0,0,0
6.250048,-0.1217254,1,0,0,0,0,0,0,0,0,0,0,0,0,0,0,0,0,0.05772826,-0.0007497177,0.01949266,-0.06152344,-1.063477,-0.04956055,0,0,0,0,0,0
6.260048,-0.1217254,1,0,0,0,0,0,0,0,0,0,0,0,0,0,0,0,0,0,0,0,-0.04626465,-1.091553,0.04162598,0,0,0,0,0,0
6.270049,-0.1059862,1,0,0,0,0,0,0,0,0,0,0,0,0,0,0,0,0,0,0,0,0.06665039,-1.060425,-0.02233887,0,0,0,0,0,0
6.280049,-0.06669273,1,0,0,0,0,0,0,0,0,0,0,0,0,0,0,0,0,0,0,0,0.0567627,-1.285522,-0.008178711,0,0,0,0,0,0
6.290049,0.01960851,1,0,0,0,0,0,0,0,0,1,0,0,0,0,1,0,0,0,0,0,-0.07763672,-1.029297,-0.007324219,0,0,0,0,0,0
6.300049,0.1059862,1,0,0,0,0,0,0,0,0,1,0,0,0,0,1,0,0,0,0,0,-0.02050781,-1.040283,0.008911133,0,0,0,0,0,0
6.31005,0.1769445,1,0,0,0,0,0,0,0,0,1,0,0,0,0,1,0,0,-0.1411757,0.04798128,0,-0.06787109,-0.9589844,-0.1060791,0,0,0,0,0,0
6.32005,0.2006854,1,0,0,0,0,0,0,0,0,1,0,0,0,0,1,0,0,0,0,0,-0.1420898,-0.9283447,-0.1513672,0,0,0,0,0,0
6.33005,0.2165419,1,0,0,0,0,0,0,0,0,1,0,0,0,0,1,0,0,0,0,0,-0.08837891,-0.9125977,-0.2390137,0,0,0,0,0,0
6.34005,0.2165419,1,0,0,0,0,0,0,0,0,1,0,0,0,0,1,0,0,0,0,0,-0.06970215,-0.8892822,-0.2481689,0,0,0,0,0,0
6.35005,0.2165419,1,0,0,0,0,0,0,0,0,1,0,0,0,0,1,0,0,0,0,0,-0.05847168,-0.8649902,-0.1386719,0,0,0,0,0,0
6.360051,0.2165419,1,0,0,0,0,0,0,0,0,1,0,0,0,0,1,0,0,0,0,0,0.04772949,-0.9381104,-0.1011963,0,0,0,0,0,0
6.370051,0.2165419,1,0,0,0,0,0,0,0,0,1,0,0,0,0,1,0,0,0,0,0,0.06005859,-0.9276123,-0.0958252,0,0,0,0,0,0
6.380051,0.2165419,1,-0.006639781,-0.02094085,0,0,0,0,0,0,0,0,0,0,0,0,0,0,0,0,0,0.004516602,-0.9360352,-0.1179199,0,0,0,0,0,0
6.390051,0.2244794,1,-0.03065021,-0.1369043,0,0,0,0,0,0,0,0,0,0,0,0,0,0,0.0812128,0.02298947,0.041481,0.02368164,-1.033569,-0.1174316,0,0,0,0,0,0
6.400052,0.2403741,1,-0.05439752,-0.2834397,0,0,0,0,0,0,0,0,0,0,0,0,0,0,0,0,0,-0.03063965,-1.130493,-0.2541504,0,0,0,0,0,0
6.410052,0.2403741,1,-0.1505773,-0.672089,0,0,0,0,0,0,0,0,0,0,0,0,0,0,0.06497025,0.01399359,0.01774187,-0.09326172,-1.018555,-0.02355957,0,0,0,0,0,0
6.420052,0.2403741,1,-0.2210414,-0.9035553,0,0,0,0,0,0,0,0,0,0,0,0,0,0,0,0,0,-0.1105957,-1.156494,0.01208496,0,0,0,0,0,0
6.430052,0.2483314,1,-0.2802319,-1,0,0,0,0,0,0,0,0,0,0,0,0,0,0,0,0,0,-0.1185303,-1.202637,-0.003295898,0,0,0,0,0,0
6.440053,0.2562958,1,-0.2882255,-1,0,0,0,0,0,0,0,0,0,0,0,0,0,0,-0.08766584,0.01984016,0.01776387,-0.06738281,-1.041382,-0.0447998,0,0,0,0,0,0
6.450053,0.2722459,1,-0.2962267,-1,0,0,0,0,0,0,0,0,0,0,0,0,0,0,0,0,0,0.006347656,-1.052002,0.008544922,0,0,0,0,0,0
6.460053,0.2962267,1,-0.2962267,-1,0,0,0,0,0,0,0,0,0,0,0,0,0,0,0,0,0,-0.06408691,-1.075806,-0.001953125,0,0,0,0,0,0
6.470053,0.3122526,1,-0.2962267,-1,0,0,0,0,0,0,0,0,0,0,0,0,0,0,-0.1526925,0.03248777,0.01149567,-0.02783203,-1.013672,-0.09216309,0,0,0,0,0,0
6.480053,0.3283107,1,-0.2642672,-1,0,0,0,0,0,0,0,0,0,0,0,0,0,0,0,0,0,-0.05114746,-0.9530029,-0.1242676,0,0,0,0,0,0
6.490054,0.3444016,1,-0.1848525,-1,0,0,0,0,0,0,0,0,0,0,0,0,0,0,0,0,0,-0.05065918,-0.930542,-0.1213379,0,0,0,0,0,0
6.500054,0.3524597,1,-0.08240198,-1,0,0,0,0,0,0,0,0,0,0,0,1,0,0,-0.08996613,-0.006497554,-0.04423334,-0.0526123,-0.8852539,-0.182373,0,0,0,0,0,0
6.510054,0.3605264,1,-0.02745281,-1,0,0,0,0,0,0,0,0,0,0,0,1,0,0,0,0,0,-0.05090332,-0.9118652,-0.2440186,0,0,0,0,0,0
6.520054,0.3605264,1,0.05884144,-1,0,0,0,0,0,0,0,0,0,0,0,1,0,0,0,0,0,-0.0201416,-0.9284668,-0.2303467,0,0,0,0,0,0
6.530055,0.3605264,1,0.06669273,-1,0,0,0,0,0,0,0,0,0,0,0,0,0,0,0.0674746,-0.03723598,-0.01599398,0.08532715,-0.8828125,-0.2116699,0,0,0,0,0,0
6.540055,0.3605264,1,0.06669273,-1,0,0,0,0,0,0,0,0,0,0,0,0,0,0,0,0,0,0.1107178,-0.8845215,-0.2039795,0,0,0,0,0,0
6.550055,0.3766855,1,0.01176485,-1,0,0,0,0,0,0,0,0,0,0,0,0,0,0,0,0,0,0.08776855,-0.8591309,-0.2474365,0,0,0,0,0,0
6.560055,0.3928797,1,-0.05099206,-1,0,0,0,0,0,0,0,0,0,0,0,0,0,0,0,0,0,0.06970215,-1.022827,-0.1558838,0,0,0,0,0,0
6.570055,0.4172379,1,-0.05455982,-0.2208373,0,0,0,0,0,0,0,0,0,0,0,0,0,0,0,0,0,-0.06445313,-1.12207,0.005371094,0,0,0,0,0,0
6.580056,0.433522,1,0,0,0,0,0,0,0,0,0,0,0,0,0,0,0,0,0.1641882,0.01824313,0.06022732,-0.1401367,-1.152588,0.02282715,0,0,0,0,0,0
6.590056,0.4580168,1,0,0,0,0,0,0,0,0,0,0,0,0,0,0,0,0,0,0,0,-0.1877441,-1.109619,0.06030273,0,0,0,0,0,0
6.600056,0.4662001,1,0,0,0,0,0,0,0,0,0,0,0,0,0,0,0,0,0,0,0,-0.1488037,-1.158447,-0.06677246,0,0,0,0,0,0
6.610056,0.4825947,1,0,0,0,0,0,0,0,0,0,0,0,0,0,0,0,0,0,0,0,-0.1694336,-1.075195,0.03100586,0,0,0,0,0,0
6.620057,0.5154955,1,0,0,0,0,0,0,0,0,0,0,0,0,0,0,0,0,0,0,0,0.008178711,-0.9842529,-0.02819824,0,0,0,0,0,0
6.630057,0.5485454,1,0,0,0,0,0,0,0,0,0,0,0,0,0,1,0,0,0,0,0,-0.01843262,-1.013794,-0.05358887,0,0,0,0,0,0
6.640057,0.5729127,1,-0.03003737,0.08695029,0,0,0,0,0,0,0,0,0,0,0,1,0,0,0,0,0,0.02807617,-1.004517,-0.1035156,0,0,0,0,0,0
6.650057,0.5890183,1,-0.04410596,0.140719,0,0,0,0,0,0,0,0,0,0,0,1,0,0,0,0,0,-0.06591797,-0.8640137,-0.1357422,0,0,0,0,0,0
6.660058,0.5973468,1,-0.04410596,0.140719,0,0,0,0,0,0,0,0,0,0,0,1,0,0,0,0,0,-0.006713867,-0.9223633,-0.1938477,0,0,0,0,0,0
6.670058,0.5973468,1,-0.04410596,0.140719,0,0,0,0,0,0,0,0,0,0,0,1,0,0,0,0,0,-0.03601074,-0.9516602,-0.2520752,0,0,0,0,0,0
6.680058,0.5968135,0.9973595,-0.02262647,0.06787942,0,0,0,0,0,0,0,0,0,0,0,1,0,0,0.07222281,-0.05198043,-0.005248024,0.05114746,-0.9394531,-0.2503662,0,0,0,0,0,0
6.690058,0.5973468,1,0,0,0,0,0,0,0,0,0,0,0,0,0,1,0,0,0,0,0,0.005126953,-0.9165039,-0.1080322,0,0,0,0,0,0
6.700058,0.5968135,0.9973595,0,0,0,0,0,0,0,0,0,0,0,0,0,1,0,0,0,0,0,-0.0123291,-0.9423828,-0.03259277,0,0,0,0,0,0
6.710059,0.5884867,0.9968243,0,0,0,0,0,0,0,0,0,0,0,0,0,1,0,0,0.1361987,-0.01324501,-0.02249153,-0.03027344,-0.9748535,-0.1304932,0,0,0,0,0,0
6.720059,0.5968135,0.9973595,0,0,0,0,0,0,0,0,0,0,0,0,0,0,0,0,0,0,0,-0.03845215,-1.014404,-0.1506348,0,0,0,0,0,0
6.730059,0.5884867,0.9968243,0,0,0,0,0,0,0,0,0,0,0,0,0,0,0,0,0,0,0,-0.08032227,-1.098755,-0.1025391,0,0,0,0,0,0
6.740059,0.5884867,0.9968243,0,0,0,0,0,0,0,0,0,0,0,0,0,0,0,0,0.0599766,-0.0232986,0.006228339,-0.1236572,-1.080322,0.002197266,0,0,0,0,0,0
6.75006,0.5884867,0.9968243,0,0,0,0,0,0,0,0,0,0,0,0,0,0,0,0,0,0,0,-0.168335,-1.116089,0.01867676,0,0,0,0,0,0
6.76006,0.5884867,0.9968243,0,0,0,0,0,0,0,0,0,0,0,0,0,0,0,0,0,0,0,-0.1248779,-1.097168,-0.009887695,0,0,0,0,0,0
6.77006,0.5890183,1,0,0,0,0,0,0,0,0,0,0,0,0,0,0,0,0,-0.03998494,-0.01099586,0.009246519,-0.08691406,-1.043213,0.04968262,0,0,0,0,0,0
6.78006,0.5884867,0.9968243,0,0,0,0,0,0,0,0,0,0,0,0,0,0,0,0,0,0,0,-0.1258545,-1.051636,0.01098633,0,0,0,0,0,0
6.790061,0.5884867,0.9968243,0,0,0,0,0,0,0,0,0,0,0,0,0,0,0,0,0,0,0,-0.04931641,-1.036255,-0.04943848,0,0,0,0,0,0
6.800061,0.5890183,1,0.02200443,0.09986624,0,0,0,0,0,0,0,0,0,0,0,1,0,0,-0.09971246,0.01449454,-0.005248024,-0.02368164,-1.063965,0.00390625,0,0,0,0,0,0
6.810061,0.5968135,0.9973595,0.08139091,0.3225491,0,0,0,0,0,0,0,0,0,0,0,1,0,0,0,0,0,-0.01391602,-1.005493,-0.05114746,0,0,0,0,0,0
6.820061,0.6051498,0.9978961,0.2002822,0.6299785,0,0,0,0,0,0,0,0,0,0,0,1,0,0,0,0,0,-0.03515625,-0.9538574,-0.0189209,0,0,0,0,0,0
6.830061,0.6291237,0.9817535,0.2864156,0.7981449,0,0,0,0,0,0,0,0,0,0,0,1,0,0,0,0,0,0.1003418,-0.904541,-0.208374,0,0,0,0,0,0
6.840062,0.6453226,0.973996,0.3025981,0.8082051,0,0,0,0,0,0,0,0,0,0,0,1,0,0,0,0,0,0.09667969,-0.9255371,-0.2791748,0,0,0,0,0,0
6.850062,0.6778142,0.9585657,0.323999,0.7737858,0,0,0,0,0,0,0,0,0,0,0,1,0,0,0,0,0,0.01086426,-0.9189453,-0.1876221,0,0,0,0,0,0
6.860062,0.6935343,0.9420841,0.3407973,0.5899825,0,0,0,0,0,0,0,0,0,0,0,1,0,0,0,0,0,0.01586914,-0.9018555,-0.1072998,0,0,0,0,0,0
6.870062,0.7171578,0.9174812,0.3161083,0.3294181,0,0,0,0,0,0,0,0,0,0,0,1,0,0,0.1414467,-0.01624388,0.02723974,0.002563477,-0.8688965,-0.1229248,0,0,0,0,0,0
6.880063,0.7335345,0.9099035,0.2855707,0.1653304,0,0,0,0,0,0,0,0,0,0,0,1,0,0,0,0,0,-0.0267334,-0.9089355,-0.1257324,0,0,0,0,0,0
6.890063,0.7578744,0.8942115,0.2620663,-0.01379296,0,0,0,0,0,0,0,0,0,0,0,0,0,0,0,0,0,-0.04748535,-1.020508,-0.05529785,0,0,0,0,0,0
6.900063,0.765208,0.877385,0.3059791,-0.1423863,0,0,0,0,0,0,0,0,0,0,0,0,0,0,0.109342,-0.001384075,0.03575528,-0.09509277,-1.057739,0.0135498,0,0,0,0,0,0
6.910063,0.77375,0.8779858,0.3683359,-0.2621489,0,0,0,0,0,0,0,0,0,0,0,0,0,0,0,0,0,-0.12854,-1.026245,0.046875,0,0,0,0,0,0
6.920063,0.7817017,0.8698937,0.4476562,-0.484051,0,0,0,0,0,0,0,0,0,0,0,0,0,0,0,0,0,-0.1434326,-1.187378,0.00769043,0,0,0,0,0,0
6.930064,0.7817017,0.8698937,0.4741298,-0.6637818,0,0,0,0,0,0,0,0,0,0,0,0,0,0,0,0,0,-0.1383057,-1.147339,0.01123047,0,0,0,0,0,0
6.940064,0.7817017,0.8698937,0.5107899,-0.938428,0,0,0,0,0,0,0,0,0,0,0,0,0,0,0,0,0,-0.04772949,-1.111206,-0.001708984,0,0,0,0,0,0
6.950064,0.7902642,0.8704941,0.5129389,-0.9741862,0,0,0,0,0,0,0,0,0,0,0,0,0,0,0,0,0,-0.1571045,-1.023682,-0.0411377,0,0,0,0,0,0
6.960064,0.7896631,0.861815,0.5129389,-0.9741862,0,0,0,0,0,0,0,0,0,0,0,0,0,0,-0.1481942,0.009996235,0.04048476,-0.1033936,-1.172241,-0.04516602,0,0,0,0,0,0
6.970065,0.7896631,0.861815,0.5129389,-0.9741862,0,0,0,0,0,0,0,0,0,0,0,0,0,0,0,0,0,-0.05151367,-1.048828,-0.01965332,0,0,0,0,0,0
6.980065,0.7896631,0.861815,0.5129389,-0.9741862,0,0,0,0,0,0,0,0,0,0,0,1,0,0,0,0,0,-0.03210449,-0.9943848,-0.07226563,0,0,0,0,0,0
6.990065,0.7982369,0.8624167,0.5294175,-0.9752428,0,0,0,0,0,0,0,0,0,0,0,1,0,0,-0.1511931,0.03148814,0.003248777,0.02160645,-0.9503174,-0.1251221,0,0,0,0,0,0
7.000065,0.7982369,0.8624167,0.5294175,-0.9752428,0,0,0,0,0,0,0,0,0,0,0,1,0,0,0,0,0,0.009277344,-0.8934326,-0.1536865,0,0,0,0,0,0
7.010066,0.7982369,0.8624167,0.5294175,-0.9752428,0,0,0,0,0,0,0,0,0,0,0,1,0,0,0,0,0,-0.01513672,-0.9030762,-0.2392578,0,0,0,0,0,0
7.020066,0.7982369,0.8624167,0.5283443,-0.9573756,0,0,0,0,0,0,0,0,0,0,0,1,0,0,0,0,0,-0.01391602,-0.9168701,-0.2313232,0,0,0,0,0,0
7.030066,0.8068197,0.8630162,0.5173304,-0.9122391,0,0,0,0,0,0,0,0,0,0,0,1,0,0,0,0,0,-0.0222168,-0.9349365,-0.178833,0,0,0,0,0,0
7.040066,0.8216138,0.8296295,0.49984,-0.7788205,0,0,0,0,0,0,0,0,0,0,0,1,0,0,0,0,0,-0.06726074,-0.9302979,-0.1710205,0,0,0,0,0,0
7.050066,0.8698937,0.7817017,0.4659214,-0.5777426,0,0,0,0,0,0,0,0,0,0,0,1,0,0,0,0,0,-0.0369873,-0.9733887,-0.1157227,0,0,0,0,0,0
7.060067,0.892418,0.7323431,0.4242361,-0.4242361,0,0,0,0,0,0,0,0,0,0,0,1,0,0,0,0,0,-0.06005859,-1.032227,-0.07800293,0,0,0,0,0,0
7.070067,0.9332856,0.6929545,0.3790455,-0.1717044,0,0,0,0,0,0,0,0,0,0,0,0,0,0,0,0,0,-0.04748535,-1.062744,-0.04272461,0,0,0,0,0,0
7.080067,0.9485974,0.6604159,0.3644011,0.04048901,0,0,0,0,0,0,0,0,0,0,0,0,0,0,0.03760071,-0.03275645,-0.05605506,-0.08337402,-1.066162,-0.07348633,0,0,0,0,0,0
7.090067,0.9557259,0.6358177,0.4480202,0.1650601,0,0,0,0,0,0,0,0,0,0,0,0,0,0,0,0,0,-0.07446289,-1.08252,-0.06079102,0,0,0,0,0,0
7.100068,0.980105,0.6040648,0.6218852,0.3984534,0,0,0,0,0,0,0,0,0,0,0,0,0,0,0,0,0,-0.05371094,-1.088867,0.01379395,0,0,0,0,0,0
7.110068,0.9879154,0.5879496,0.6826698,0.49198,0,0,0,0,0,0,0,0,0,0,0,0,0,0,-0.08196913,-0.001499435,-0.009746331,-0.02478027,-1.068481,-0.006469727,0,0,0,0,0,0
7.120068,0.9962907,0.5801693,0.7007967,0.5016632,0,0,0,0,0,0,0,0,0,0,0,0,0,0,0,0,0,0.01806641,-1.064453,-0.02844238,0,0,0,0,0,0
7.130068,1,0.5723898,0.7276536,0.5120525,0,0,0,0,0,0,0,0,0,0,0,1,0,0,0,0,0,0.004394531,-1.005371,-0.06091309,0,0,0,0,0,0
7.140069,1,0.5723898,0.7531692,0.5059752,0,0,0,0,0,0,0,0,0,0,0,1,0,0,0,0,0,-0.01269531,-0.9318848,-0.02954102,0,0,0,0,0,0
7.150069,1,0.5723898,0.7693503,0.4909923,0,0,0,0,0,0,0,0,0,0,0,1,0,0,0,0,0,-0.06506348,-0.9689941,-0.007080078,0,0,0,0,0,0
7.160069,1,0.5646105,0.7823716,0.4355073,0,0,0,0,0,0,0,0,0,0,0,1,0,0,0,0,0,-0.07385254,-0.894043,-0.2958984,0,0,0,0,0,0
7.170069,1,0.5154955,0.7791907,0.3953529,0,0,0,0,0,0,0,0,0,0,0,1,0,0,0,0,0,-0.1053467,-0.862915,-0.3551025,0,0,0,0,0,0
7.180069,1,0.3605264,0.7642245,0.3155753,0,0,0,0,0,0,0,0,0,0,0,1,0,0,0,0,0,-0.1114502,-0.8675537,-0.2521973,0,0,0,0,0,0
7.19007,1,0.1217254,0.6848707,0.2110142,0,0,0,0,0,0,0,0,0,0,0,1,0,0,0,0,0,-0.01806641,-0.9763184,-0.1298828,0,0,0,0,0,0
7.20007,1,-0.1532514,0.5691156,0.1025115,0,0,0,0,0,0,0,0,0,0,0,1,0,0,0.165397,-0.03044966,-0.03621664,0.02197266,-0.9884033,-0.0489502,0,0,0,0,0,0
7.21007,1,-0.3042357,0.4653713,0.03682794,0,0,0,0,0,0,0,0,0,0,0,0,0,0,0,0,0,0.004516602,-1.000122,-0.09155273,0,0,0,0,0,0
7.22007,1,-0.5072563,0.2718043,-0.02521896,0,0,0,0,0,0,0,0,0,0,0,0,0,0,0,0,0,-0.009521484,-1.040161,-0.06860352,0,0,0,0,0,0
7.230071,0.9474515,-0.6436275,0.02946557,-0.008908195,0,0,0,0,0,0,0,0,0,0,0,0,0,0,0.07197192,0.0110726,-0.03437121,-0.05456543,-1.083252,-0.03552246,0,0,0,0,0,0
7.240071,0.8824759,-0.7147655,0,0,0,0,0,0,0,0,0,0,0,0,0,0,0,0,0,0,0,-0.06481934,-1.12146,-0.02978516,0,0,0,0,0,0
7.250071,0.7939504,-0.8019298,0,0,0,0,0,0,0,0,0,0,0,0,0,0,0,0,0,0,0,-0.02807617,-1.155884,-0.07922363,0,0,0,0,0,0
7.260071,0.7220283,-0.8656361,0,0,0,0,0,0,0,0,0,0,0,0,0,0,0,0,-0.07447196,0.02449078,-0.01049605,-0.01477051,-1.136841,0.03393555,0,0,0,0,0,0
7.270072,0.682148,-0.8975631,0,0,0,0,0,0,0,0,0,0,0,0,0,0,0,0,0,0,0,-0.05737305,-1.124146,-0.05883789,0,0,0,0,0,0
7.280072,0.6502753,-0.9215559,-0.2049975,0.182532,0,0,0,0,0,0,0,0,0,0,0,0,0,0,0,0,0,0.03088379,-0.9338379,-0.08007813,0,0,0,0,0,0
7.290072,0.6263045,-0.9374622,-0.3809936,0.4593287,0,0,0,0,0,0,0,0,0,0,0,1,0,0,-0.2199172,0.04623259,-0.005248024,0.02612305,-1.079468,0.07556152,0,0,0,0,0,0
7.300072,0.6179457,-0.9368855,-0.4636289,0.6370186,0,0,0,0,0,0,0,0,0,0,0,1,0,0,0,0,0,0.0378418,-0.9179688,0.01147461,0,0,0,0,0,0
7.310072,0.6179457,-0.9368855,-0.5505133,0.8003916,0,0,0,0,0,0,0,0,0,0,0,1,0,0,0,0,0,0.04455566,-0.9521484,-0.2005615,0,0,0,0,0,0
7.320073,0.6179457,-0.9368855,-0.618992,0.8318937,0,0,0,0,0,0,0,0,0,0,0,1,0,0,0,0,0,0.01330566,-0.822876,-0.380127,0,0,0,0,0,0
7.330073,0.6018312,-0.9445959,-0.6357424,0.8331779,0,0,0,0,0,0,0,0,0,0,0,1,0,0,0,0,0,-0.04858398,-0.8358154,-0.3406982,0,0,0,0,0,0
7.340073,0.5614042,-0.9595633,-0.6408659,0.7902702,0,0,0,0,0,0,0,0,0,0,0,1,0,0,0.1024306,-0.05975119,-0.03299004,0.02319336,-0.8886719,-0.284668,0,0,0,0,0,0
7.350073,0.5371357,-0.9668443,-0.6401846,0.6789837,0,0,0,0,0,0,0,0,0,0,0,1,0,0,0.1407267,-0.05190741,-0.01407268,0.0111084,-0.8977051,-0.07788086,0,0,0,0,0,0
7.360074,0.5014718,-0.920023,-0.6334014,0.602691,0,0,0,0,0,0,0,0,0,0,0,1,0,0,0,0,0,0.01391602,-0.9525146,0.02734375,0,0,0,0,0,0
7.370074,0.3556146,-0.5829147,-0.6512056,0.5217261,0,0,0,0,0,0,0,0,0,0,0,1,0,0,0,0,0,0.05200195,-0.9995117,0.002075195,0,0,0,0,0,0
7.380074,0.08611164,-0.1197162,-0.6803933,0.4675329,0,0,0,0,0,0,0,0,0,0,0,0,0,0,0.107506,-0.01107358,0.007613087,-0.06665039,-1.092163,0.001953125,0,0,0,0,0,0
7.390074,0,0,-0.7145857,0.4623789,0,0,0,0,0,0,0,0,0,0,0,0,0,0,0,0,0,-0.07287598,-1.198975,-0.05126953,0,0,0,0,0,0
7.400074,0,0,-0.75851,0.4658868,0,0,0,0,0,0,0,0,0,0,0,0,0,0,0,0,0,-0.2849121,-1.097168,-0.08850098,0,0,0,0,0,0
7.410075,-0.07530265,-0.05607645,-0.8115222,0.4698286,0,0,0,0,0,0,0,0,0,0,0,0,0,0,0,0,0,-0.2011719,-1.11145,-0.1030273,0,0,0,0,0,0
7.420075,-0.3201379,-0.3069363,-0.8669578,0.6215177,0,0,0,0,0,0,0,0,0,0,0,0,0,0,0,0,0,-0.08227539,-1.16687,-0.1236572,0,0,0,0,0,0
7.430075,-0.5699428,-0.6387949,-0.865021,0.7135427,0,0,0,0,0,0,0,0,0,0,0,0,0,0,0,0,0,0.03930664,-1.013794,-0.1243896,0,0,0,0,0,0
7.440075,-0.69409,-0.8289418,-0.8420238,0.7542298,0,0,0,0,0,0,0,0,0,0,0,0,0,0,0,0,0,0.1103516,-1.125854,0.1074219,0,0,0,0,0,0
7.450076,-0.7110435,-0.8302128,-0.785358,0.8013044,0,0,0,0,0,0,0,0,0,0,0,0,0,0,0,0,0,0.08752441,-1.141724,0.1628418,0,0,0,0,0,0
7.460076,-0.7110435,-0.8302128,-0.7456988,0.8414034,0,0,0,0,0,0,0,0,0,0,0,1,0,0,-0.2089213,0.01199548,-0.003748589,0.006225586,-0.9042969,0.01184082,0,0,0,0,0,0
7.470076,-0.711675,-0.8389018,-0.7299091,0.8575435,0,0,0,0,0,0,0,0,0,0,0,1,0,0,0,0,0,0.07055664,-0.9267578,-0.0357666,0,0,0,0,0,0
7.480076,-0.648488,-0.8951521,-0.7050672,0.8644044,0,0,0,0,0,0,0,0,0,0,0,1,0,0,0,0,0,-0.144043,-0.7319336,-0.08947754,0,0,0,0,0,0
7.490077,-0.5614042,-0.9595633,-0.7050672,0.8644044,0,0,0,0,0,0,0,0,0,0,0,1,0,0,-0.08650471,0.01960774,-0.007151056,0.02746582,-0.8636475,-0.2095947,0,0,0,0,0,0
7.500077,-0.497528,-0.9910758,-0.7050672,0.8644044,0,0,0,0,0,0,0,0,0,0,0,1,0,0,0,0,0,0.04101563,-0.9207764,-0.3754883,0,0,0,0,0,0
7.510077,-0.3686016,-1,-0.696602,0.8637865,0,0,0,0,0,0,0,0,0,0,0,1,0,0,0,0,0,0.0009765625,-0.8896484,-0.2518311,0,0,0,0,0,0
7.520077,-0.2802319,-1,-0.6693802,0.8357351,0,0,0,0,0,0,0,0,0,0,0,1,0,0,0,0,0,0.03466797,-0.8208008,-0.1520996,0,0,0,0,0,0
7.530077,-0.09026043,-1,-0.5524827,0.6286871,0,0,0,0,0,0,0,0,0,0,0,1,0,0,0,0,0,0.12854,-0.944458,-0.1704102,0,0,0,0,0,0
7.540078,0.1059862,-1,-0.4095679,0.3745621,0,0,0,0,0,0,0,0,0,0,0,0,0,0,0,0,0,0.02966309,-0.9522705,-0.2210693,0,0,0,0,0,0
7.550078,0.2483314,-1,-0.2162151,0.1395819,0,0,0,0,0,0,0,0,0,0,0,0,0,0,0.1836808,-0.01574407,0.1144569,-0.05554199,-1.038086,-0.1960449,0,0,0,0,0,0
7.560078,0.3042357,-1,-0.0663192,0.03112942,0,0,0,0,0,0,0,0,0,0,0,0,0,0,0,0,0,-0.0793457,-1.145264,-0.1737061,0,0,0,0,0,0
7.570078,0.3283107,-1,0,0,0,0,0,0,0,0,0,0,0,0,0,0,0,0,0.0677245,-0.01624388,0.0974633,-0.1275635,-1.088989,0.02026367,0,0,0,0,0,0
7.580079,0.3283107,-1,0,0,0,0,0,0,0,0,0,0,0,0,0,0,0,0,0,0,0,-0.1118164,-1.162354,-0.0078125,0,0,0,0,0,0
7.590079,0.3283107,-1,0,0,0,0,0,0,0,0,0,0,0,0,0,0,0,0,0,0,0,-0.01123047,-1.152344,0.07507324,0,0,0,0,0,0
7.600079,0.3444016,-1,0,0,0,0,0,0,0,0,0,0,0,0,0,0,0,0,0,0,0,-0.03637695,-1.199585,-0.01293945,0,0,0,0,0,0
7.610079,0.3686016,-1,0.08704469,0.1406106,0,0,0,0,0,0,0,0,0,0,0,0,0,0,-0.1809319,0.05997742,0.01874294,-0.05419922,-1.08667,-0.05200195,0,0,0,0,0,0
7.62008,0.3928797,-1,0.258341,0.4512356,0,0,0,0,0,0,0,0,0,0,0,1,0,0,0,0,0,-0.07678223,-1.210693,0.02563477,0,0,0,0,0,0
7.63008,0.4091095,-1,0.4893174,0.9905694,0,0,0,0,0,0,0,0,0,0,0,1,0,0,0,0,0,0.046875,-0.8049316,-0.1329346,0,0,0,0,0,0
7.64008,0.4172379,-1,0.4985325,1,0,0,0,0,0,0,0,0,0,0,0,1,0,0,0,0,0,0.08239746,-0.7279053,-0.1832275,0,0,0,0,0,0
7.65008,0.4172379,-1,0.4825947,1,0,0,0,0,0,0,0,0,0,0,0,1,0,0,0,0,0,0.2426758,-0.8703613,-0.2390137,0,0,0,0,0,0
7.66008,0.4172379,-1,0.4908059,1,0,0,0,0,0,0,0,0,0,0,0,1,0,0,0.02024238,-0.01399473,-0.02399097,0.04736328,-0.8999023,-0.298584,0,0,0,0,0,0
7.670081,0.4172379,-1,0.523744,1,0,0,0,0,0,0,0,0,0,0,0,1,0,0,0,0,0,0.03662109,-0.9560547,-0.2641602,0,0,0,0,0,0
7.680081,0.4172379,-1,0.5574057,0.8973836,0,0,0,0,0,0,0,0,0,0,0,1,0,0,0,0,0,-0.03540039,-0.9342041,-0.1082764,0,0,0,0,0,0
7.690081,0.3686016,-1,0.4864636,0.6222209,0,0,0,0,0,0,0,0,0,0,0,1,0,0,0.167187,-0.03698608,0.007747083,0.01989746,-0.9335938,-0.09411621,0,0,0,0,0,0
7.700081,0.336352,-1,0.3938817,0.4364635,0,0,0,0,0,0,0,0,0,0,0,1,0,0,0,0,0,-0.02648926,-0.9753418,-0.1074219,0,0,0,0,0,0
7.710082,0.2882255,-1,0.2126639,0.1843087,0,0,0,0,0,0,0,0,0,0,0,0,0,0,0,0,0,-0.09448242,-1.105957,-0.1186523,0,0,0,0,0,0
7.720082,0.2086106,-1,0,0,0,0,0,0,0,0,0,0,0,0,0,0,0,0,0.04323372,-0.03173805,-0.04523297,-0.1352539,-1.248535,-0.09667969,0,0,0,0,0,0
7.730082,0.1453634,-1,0,0,0,0,0,0,0,0,0,0,0,0,0,0,0,0,0,0,0,-0.1184082,-1.137695,0.001708984,0,0,0,0,0,0
7.740082,0.06669273,-1,0,0,0,0,0,0,0,0,0,0,0,0,0,0,0,0,-0.04498306,-0.01874294,-0.06472563,-0.05456543,-1.110962,-0.0838623,0,0,0,0,0,0
7.750082,0.01960851,-1,0,0,0,0,0,0,0,0,0,0,0,0,0,0,0,0,0,0,0,0.008300781,-1.057983,-0.08007813,0,0,0,0,0,0
7.760083,-0.05099206,-1,0,0,0,0,0,0,0,0,0,0,0,0,0,0,0,0,0,0,0,0.03857422,-1.081421,0.05493164,0,0,0,0,0,0
7.770083,-0.1217254,-1,-0.04410596,0.140719,0,0,0,0,0,0,0,0,0,0,0,0,0,0,-0.12226,0.01522483,-0.02768151,0.02404785,-1.099854,-0.05981445,0,0,0,0,0,0
7.780083,-0.1690417,-1,-0.08213694,0.3315898,0,0,0,0,0,0,0,0,0,0,0,1,0,0,0,0,0,0.04846191,-0.9956055,-0.1563721,0,0,0,0,0,0
7.790083,-0.2562958,-1,-0.1058765,0.6608152,0,0,0,0,0,0,0,0,0,0,0,1,0,0,-0.1919277,0.004248401,-0.02923899,0.04748535,-0.9775391,-0.1087646,0,0,0,0,0,0
7.800084,-0.3283107,-1,-0.1112362,0.8630394,0,0,0,0,0,0,0,0,0,0,0,1,0,0,0,0,0,0.03771973,-0.8753662,-0.03759766,0,0,0,0,0,0
7.810084,-0.4801027,-0.9721088,-0.113854,1,0,0,0,0,0,0,0,0,0,0,0,1,0,0,0,0,0,0.1867676,-0.8619385,-0.2033691,0,0,0,0,0,0
7.820084,-0.6376418,-0.8594302,-0.1374799,1,0,0,0,0,0,0,0,0,0,0,0,1,0,0,0.02074219,-0.02374106,-0.04823184,0.1060791,-0.8580322,-0.3310547,0,0,0,0,0,0
7.830084,-0.755761,-0.7478473,-0.1453634,1,0,0,0,0,0,0,0,0,0,0,0,1,0,0,0,0,0,0.04418945,-0.8775635,-0.3123779,0,0,0,0,0,0
7.840085,-0.9068332,-0.5662758,-0.1423143,0.8731174,0,0,0,0,0,0,0,0,0,0,0,1,0,0,0,0,0,0.1202393,-0.907959,-0.1981201,0,0,0,0,0,0
7.850085,-0.9546975,-0.4872523,-0.1320903,0.5890514,0,0,0,0,0,0,0,0,0,0,0,1,0,0,0,0,0,0.05908203,-0.8756104,-0.1112061,0,0,0,0,0,0
7.860085,-0.9861843,-0.4158609,-0.1116849,0.2663256,0,0,0,0,0,0,0,0,0,0,0,1,0,0,0.2111705,0.008496801,0.07971999,0.04699707,-0.8936768,-0.1248779,0,0,0,0,0,0
7.870085,-1,-0.3762585,-0.06724153,0.08103468,0,0,0,0,0,0,0,0,0,0,0,0,0,0,0,0,0,0.01843262,-0.9974365,-0.1090088,0,0,0,0,0,0
7.880085,-1,-0.2086106,0,0,0,0,0,0,0,0,0,0,0,0,0,0,0,0,0.3180524,0.06728208,0.2579787,-0.135376,-1.100342,-0.05065918,0,0,0,0,0,0
7.890086,-1,-0.113854,0,0,0,0,0,0,0,0,0,0,0,0,0,0,0,0,0,0,0,-0.1624756,-1.080444,-0.06225586,0,0,0,0,0,0
7.900086,-1,-0.003921574,0,0,0,0,0,0,0,0,0,0,0,0,0,0,0,0,-0.001384075,0.01314872,0.0422143,-0.1153564,-1.153809,-0.06347656,0,0,0,0,0,0
7.910086,-1,0.08240198,0,0,0,0,0,0,0,0,0,0,0,0,0,0,0,0,0,0,0,-0.04919434,-1.116943,-0.005859375,0,0,0,0,0,0
7.920086,-1,0.2165419,0,0,0,0,0,0,0,0,0,0,0,0,0,0,0,0,0,0,0,-0.0003662109,-1.197021,0.1329346,0,0,0,0,0,0
7.930087,-1,0.3122526,0,0,0,0,0,0,0,0,0,0,0,0,0,0,0,0,0,0,0,-0.05175781,-1.189453,0.04467773,0,0,0,0,0,0
7.940087,-1,0.433522,-0.03825933,0.04521557,0,0,0,0,0,0,0,0,0,0,0,1,0,0,0,0,0,-0.04516602,-1.137085,0.05151367,0,0,0,0,0,0
7.950087,-1,0.540269,-0.100194,0.1978189,0,0,0,0,0,0,0,0,0,0,0,1,0,0,0,0,0,-0.01025391,-0.9837646,-0.07324219,0,0,0,0,0,0
7.960087,-0.9973595,0.5968135,-0.1249703,0.3200459,0,0,0,0,0,0,0,0,0,0,0,1,0,0,0,0,0,-0.03540039,-0.7457275,-0.07519531,0,0,0,0,0,0
7.970088,-0.9745538,0.653713,-0.1460991,0.3928443,0,0,0,0,0,0,0,0,0,0,0,1,0,0,0,0,0,0.1064453,-0.8220215,-0.279541,0,0,0,0,0,0
7.980088,-0.9508898,0.6941094,-0.1529442,0.3937499,0,0,0,0,0,0,0,0,0,0,0,1,0,0,0,0,0,-0.02001953,-0.8345947,-0.385376,0,0,0,0,0,0
7.990088,-0.9508898,0.6941094,-0.1358588,0.2630458,0,0,0,0,0,0,0,0,0,0,0,1,0,0,0.06572525,-0.03973504,-0.00549793,-0.005004883,-0.9040527,-0.3581543,0,0,0,0,0,0
8.000088,-0.9508898,0.6941094,-0.08845391,0.1272873,0,0,0,0,0,0,0,0,0,0,0,1,0,0,0,0,0,-0.01477051,-0.8414307,-0.1705322,0,0,0,0,0,0
8.010088,-0.9508898,0.6941094,0,0,0,0,0,0,0,0,0,0,0,0,0,1,0,0,0,0,0,-0.004760742,-0.9161377,-0.04858398,0,0,0,0,0,0
8.020088,-0.9508898,0.6941094,0,0,0,0,0,0,0,0,0,0,0,0,0,1,0,0,0,0,0,-0.01708984,-0.9206543,-0.07714844,0,0,0,0,0,0
8.030088,-0.9508898,0.6941094,0,0,0,0,0,0,0,0,0,0,0,0,0,0,0,0,0,0,0,-0.04418945,-0.9382324,-0.0814209,0,0,0,0,0,0
8.040089,-0.9508898,0.6941094,0,0,0,0,0,0,0,0,0,0,0,0,0,0,0,0,0,0,0,-0.05444336,-1.073975,-0.1226807,0,0,0,0,0,0
8.050089,-0.9508898,0.6941094,0,0,0,0,0,0,0,0,0,0,0,0,0,0,0,0,0.05882321,-0.008535132,0.03944615,-0.08898926,-1.126587,-0.08300781,0,0,0,0,0,0
8.060089,-0.9508898,0.6941094,0,0,0,0,0,0,0,0,0,0,0,0,0,0,0,0,0,0,0,-0.09741211,-1.080811,-0.0456543,0,0,0,0,0,0
8.070089,-0.9508898,0.6941094,0.01302451,-0.07959422,0,0,0,0,0,0,0,0,0,0,0,0,0,0,0,0,0,-0.07592773,-1.206177,-0.03515625,0,0,0,0,0,0
8.08009,-0.9508898,0.6941094,0.03272681,-0.1549069,0,0,0,0,0,0,0,0,0,0,0,0,0,0,-0.0509808,0.04023485,0.01974257,-0.002929688,-1.132568,0.09020996,0,0,0,0,0,0
8.09009,-0.9508898,0.6941094,0.04382265,-0.2191132,0,0,0,0,0,0,0,0,0,0,0,0,0,0,0,0,0,-0.05322266,-1.192261,0.0006103516,0,0,0,0,0,0
8.10009,-0.9344487,0.7098602,0.0669298,-0.2939091,0,0,0,0,0,0,0,0,0,0,0,1,0,0,0,0,0,-0.008300781,-1.07605,-0.02722168,0,0,0,0,0,0
8.11009,-0.8942115,0.7578744,0.08681414,-0.3143271,0,0,0,0,0,0,0,0,0,0,0,1,0,0,-0.2291637,0.07072337,0.01449454,-0.07971191,-1.013794,-0.04528809,0,0,0,0,0,0
8.12009,-0.8698937,0.7817017,0.09391438,-0.3241561,0,0,0,0,0,0,0,0,0,0,0,1,0,0,-0.2311818,0.05248451,-0.009247271,-0.02905273,-0.9498291,-0.1358643,0,0,0,0,0,0
8.130091,-0.8302338,0.8302338,0.1072042,-0.4060765,0,0,0,0,0,0,0,0,0,0,0,1,0,0,0,0,0,-0.046875,-0.8936768,-0.2841797,0,0,0,0,0,0
8.140091,-0.8142135,0.8463007,0.1155016,-0.5425075,0,0,0,0,0,0,0,0,0,0,0,1,0,0,-0.04298382,-0.0379857,-0.0464825,-0.01501465,-0.8427734,-0.3977051,0,0,0,0,0,0
8.150091,-0.8062198,0.8543524,0.1202546,-0.6522902,0,0,0,0,0,0,0,0,0,0,0,1,0,0,0,0,0,-0.0135498,-0.7982178,-0.2601318,0,0,0,0,0,0
8.160091,-0.7896631,0.861815,0.1102053,-0.8170394,0,0,0,0,0,0,0,0,0,0,0,1,0,0,0,0,0,0.05285645,-0.9528809,-0.09545898,0,0,0,0,0,0
8.170092,-0.765208,0.877385,0.0892086,-0.9269937,0,0,0,0,0,0,0,0,0,0,0,1,0,0,0,0,0,0.1069336,-0.9851074,-0.05895996,0,0,0,0,0,0
8.180092,-0.7244509,0.9005606,0.035298,-1,0,0,0,0,0,0,0,0,0,0,0,1,0,0,0,0,0,0.02478027,-1.007446,-0.1062012,0,0,0,0,0,0
8.190092,-0.7086892,0.9168916,0,-1,0,0,0,0,0,0,0,0,0,0,0,0,0,0,0,0,0,-0.04394531,-1.108643,-0.1566162,0,0,0,0,0,0
8.200092,-0.7086892,0.9168916,-0.035298,-1,0,0,0,0,0,0,0,0,0,0,0,0,0,0,0,0,0,-0.0625,-1.105835,-0.1442871,0,0,0,0,0,0
8.210093,-0.7135427,0.865021,-0.09026043,-1,0,0,0,0,0,0,0,0,0,0,0,0,0,0,0,0,0,-0.1361084,-1.102905,-0.2199707,0,0,0,0,0,0
8.220093,-0.6613628,0.5390298,-0.1453634,-1,0,0,0,0,0,0,0,0,0,0,0,0,0,0,0,0,0,-0.133667,-1.032471,-0.1262207,0,0,0,0,0,0
8.230093,-0.5763218,0.2935979,-0.1848525,-1,0,0,0,0,0,0,0,0,0,0,0,0,0,0,0,0,0,-0.1247559,-1.161621,-0.0604248,0,0,0,0,0,0
8.240093,-0.5394596,0.05220576,-0.246709,-0.959424,0,0,0,0,0,0,0,0,0,0,0,0,0,0,0,0,0,-0.07580566,-1.16394,-0.03491211,0,0,0,0,0,0
8.250093,-0.5626832,-0.1450944,-0.2308834,-0.6413428,0,0,0,0,0,0,0,0,0,0,0,1,0,0,-0.1397916,-0.01038057,-0.08050705,-0.07873535,-1.074463,-0.09936523,0,0,0,0,0,0
8.260094,-0.5991454,-0.2578141,-0.1807245,-0.3975939,0,0,0,0,0,0,0,0,0,0,0,1,0,0,0,0,0,-0.03039551,-0.9827881,-0.1170654,0,0,0,0,0,0
8.270094,-0.6370186,-0.4636289,-0.06137522,-0.06767011,0,0,0,0,0,0,0,0,0,0,0,1,0,0,0,0,0,0.03027344,-0.862793,-0.2163086,0,0,0,0,0,0
8.280094,-0.6500895,-0.6968026,0,0,0,0,0,0,0,0,0,0,0,0,0,1,0,0,-0.01874294,-0.08596763,-0.1117079,0.01965332,-0.7248535,-0.354126,0,0,0,0,0,0
8.290094,-0.6311145,-0.885148,0,0,0,0,0,0,0,0,0,0,0,0,0,1,0,0,0,0,0,0.03015137,-0.7493896,-0.3297119,0,0,0,0,0,0
8.300095,-0.552572,-0.9501057,0,0,0,0,0,0,0,0,0,0,0,0,0,1,0,0,0,0,0,0.05151367,-0.9326172,-0.1468506,0,0,0,0,0,0
8.310095,-0.4739094,-1,0,0,0,0,0,0,0,0,0,0,0,0,0,1,0,0,0,0,0,0.0970459,-0.9645996,-0.06567383,0,0,0,0,0,0
8.320095,-0.3847782,-1,0,0,0,0,0,0,0,0,0,0,0,0,0,1,0,0,0.06997365,-0.02848927,0.004498306,0.1103516,-0.9505615,-0.1086426,0,0,0,0,0,0
8.330095,-0.336352,-1,0,0,0,0,0,0,0,0,0,0,0,0,0,0,0,0,0,0,0,0.08398438,-0.9642334,-0.1583252,0,0,0,0,0,0
8.340096,-0.2403741,-1,0,0,0,0,0,0,0,0,0,0,0,0,0,0,0,0,0,0,0,0.02697754,-1.006104,-0.1806641,0,0,0,0,0,0
8.350096,-0.1690417,-1,0,0,0,0,0,0,0,0,0,0,0,0,0,0,0,0,0,0,0,-0.009033203,-1.103516,-0.2290039,0,0,0,0,0,0
8.360096,-0.05099206,-1,0,0,0,0,0,0,0,0,0,0,0,0,0,0,0,0,0,0,0,-0.009765625,-1.000366,-0.1795654,0,0,0,0,0,0
8.370096,0.1059862,-1,0,0,0,0,0,0,0,0,0,0,0,0,0,0,0,0,0.02468268,0.002076113,0.01291804,0.02832031,-1.028198,-0.1210938,0,0,0,0,0,0
8.380096,0.2403741,-1,0,0,0,0,0,0,0,0,0,0,0,0,0,0,0,0,0,0,0,0.05944824,-1.030273,-0.0592041,0,0,0,0,0,0
8.390097,0.4498426,-1,0,0,0,0,0,0,0,0,0,0,0,0,0,0,0,0,0,0,0,0.03491211,-1.139038,-0.08935547,0,0,0,0,0,0
8.400097,0.6772434,-0.9497437,0,0,0,0,0,0,0,0,0,0,0,0,0,1,0,0,-0.08096842,0.02722015,0.1010375,0.05883789,-0.9786377,-0.0390625,0,0,0,0,0,0
8.410097,0.8123925,-0.8203964,0,0,0,0,0,0,0,0,0,0,0,0,0,1,0,0,0,0,0,0.0234375,-1.182495,0.08129883,0,0,0,0,0,0
8.420097,0.9380392,-0.6346734,0,0,0,0,0,0,0,0,0,0,0,0,0,1,0,0,0,0,0,-0.02380371,-0.977417,-0.1124268,0,0,0,0,0,0
8.430098,0.9847108,-0.5382023,0,0,0,0,0,0,0,0,0,0,0,0,0,1,0,0,-0.09871283,0.03873542,0.04323372,-0.09094238,-0.9287109,-0.3023682,0,0,0,0,0,0
8.440098,0.9926133,-0.5222183,0.001119261,0.006235885,0,0,0,0,0,0,0,0,0,0,0,1,0,0,0,0,0,-0.06188965,-0.8916016,-0.447876,0,0,0,0,0,0
8.450098,0.9926133,-0.5222183,0.006913763,0.03456881,0,0,0,0,0,0,0,0,0,0,0,1,0,0,0,0,0,-0.05310059,-0.9663086,-0.3482666,0,0,0,0,0,0
8.460098,0.9847108,-0.5382023,0.01099935,0.03807466,0,0,0,0,0,0,0,0,0,0,0,1,0,0,0,0,0,-0.01696777,-1.016357,-0.2794189,0,0,0,0,0,0
8.470098,0.9457361,-0.6185194,0.01901647,0.04503901,0,0,0,0,0,0,0,0,0,0,0,1,0,0,0,0,0,-0.04248047,-0.9912109,-0.1052246,0,0,0,0,0,0
8.480099,0.8987648,-0.6990393,0.03072604,0.04893406,0,0,0,0,0,0,0,0,0,0,0,1,0,0,0,0,0,0.04699707,-0.90625,-0.1561279,0,0,0,0,0,0
8.490099,0.8525369,-0.7804915,0.03118804,0.03307822,0,0,0,0,0,0,0,0,0,0,0,1,0,0,0.1756981,-0.005498378,-0.003498968,-0.01086426,-0.9049072,-0.1434326,0,0,0,0,0,0
8.500099,0.8050102,-0.8370504,0.03543526,0.029689,0,0,0,0,0,0,0,0,0,0,0,0,0,0,0,0,0,-0.03063965,-0.9554443,-0.1312256,0,0,0,0,0,0
8.510099,0.7080969,-0.9081243,0.04769778,0.02225896,0,0,0,0,0,0,0,0,0,0,0,0,0,0,0,0,0,-0.03112793,-1.016235,-0.0925293,0,0,0,0,0,0
8.5201,0.6112997,-0.9628969,0.1129435,0.03517912,0,0,0,0,0,0,0,0,0,0,0,0,0,0,0.1070352,-0.03367917,0.003460189,-0.07580566,-1.109985,-0.09423828,0,0,0,0,0,0
8.5301,0.5552751,-0.9947014,0.1760859,0.04930407,0,0,0,0,0,0,0,0,0,0,0,0,0,0,0,0,0,-0.06530762,-1.13501,-0.02172852,0,0,0,0,0,0
8.5401,0.4743927,-1,0.3112435,0.123893,0,0,0,0,0,0,0,0,0,0,0,0,0,0,0,0,0,-0.03100586,-1.205078,0.1362305,0,0,0,0,0,0
8.5501,0.4253754,-1,0.4917055,0.3077582,0,0,0,0,0,0,0,0,0,0,0,0,0,0,-0.1028829,0.01476347,0.01683958,-0.06433105,-1.250244,0.06115723,0,0,0,0,0,0
8.560101,0.4009901,-1,0.6144654,0.4938342,0,0,0,0,0,0,0,0,0,0,0,0,0,0,0,0,0,-0.04370117,-1.045898,-0.1126709,0,0,0,0,0,0
8.570101,0.3524597,-1,0.7399471,0.7636887,0,0,0,0,0,0,0,0,0,0,0,1,0,0,-0.2259149,-0.002249153,-0.02374106,0.01428223,-1.060303,-0.1218262,0,0,0,0,0,0
8.580101,0.3283107,-1,0.7529836,0.8246963,0,0,0,0,0,0,0,0,0,0,0,1,0,0,0,0,0,0.04101563,-0.9725342,-0.2231445,0,0,0,0,0,0
8.590101,0.2802319,-1,0.7456988,0.8414034,0,0,0,0,0,0,0,0,0,0,0,1,0,0,0,0,0,0.06665039,-0.9019775,-0.2473145,0,0,0,0,0,0
8.600101,0.2324234,-1,0.7463182,0.8500843,0,0,0,0,0,0,0,0,0,0,0,1,0,0,-0.06047723,-0.05397968,-0.08096951,0.03161621,-0.7982178,-0.3470459,0,0,0,0,0,0
8.610102,0.1927661,-1,0.7463182,0.8500843,0,0,0,0,0,0,0,0,0,0,0,1,0,0,0,0,0,0.02783203,-0.8287354,-0.3398438,0,0,0,0,0,0
8.620102,0.1453634,-1,0.7707045,0.8345971,0,0,0,0,0,0,0,0,0,0,0,1,0,0,0,0,0,0.05834961,-0.8349609,-0.1651611,0,0,0,0,0,0
8.630102,0.1296006,-1,0.7914298,0.7675676,0,0,0,0,0,0,0,0,0,0,0,1,0,0,0.1094677,-0.009247271,0.02124373,0.109375,-0.8615723,-0.1488037,0,0,0,0,0,0
8.640102,0.1296006,-1,0.7649388,0.6472559,0,0,0,0,0,0,0,0,0,0,0,1,0,0,0,0,0,0.07983398,-0.8782959,-0.1496582,0,0,0,0,0,0
8.650103,0.1296006,-1,0.6788777,0.4513209,0,0,0,0,0,0,0,0,0,0,0,1,0,0,0,0,0,0.02600098,-0.9326172,-0.1660156,0,0,0,0,0,0
8.660103,0.1296006,-1,0.5450141,0.2457907,0,0,0,0,0,0,0,0,0,0,0,0,0,0,0.1679493,0.01707177,0.01937876,-0.03417969,-0.9945068,-0.1398926,0,0,0,0,0,0
8.670103,0.1296006,-1,0.4285322,0.149488,0,0,0,0,0,0,0,0,0,0,0,0,0,0,0,0,0,-0.07104492,-1.17395,-0.1464844,0,0,0,0,0,0
8.680103,0.1059862,-1,0.2100481,0.04302189,0,0,0,0,0,0,0,0,0,0,0,0,0,0,0,0,0,-0.1114502,-1.113159,-0.07385254,0,0,0,0,0,0
8.690104,0.09026043,-1,0,0,0,0,0,0,0,0,0,0,0,0,0,0,0,0,0.002499059,-0.003748589,-0.01074595,-0.06506348,-1.175903,-0.03613281,0,0,0,0,0,0
8.700104,0.07454614,-1,0,0,0,0,0,0,0,0,0,0,0,0,0,0,0,0,0,0,0,0.01599121,-1.18811,-0.03479004,0,0,0,0,0,0
8.710104,0.06669273,-1,0,0,0,0,0,0,0,0,0,0,0,0,0,0,0,0,0,0,0,-0.04223633,-1.129395,-0.1021729,0,0,0,0,0,0
8.720104,0.06669273,-1,0,0,0,0,0,0,0,0,0,0,0,0,0,0,0,0,0,0,0,0.009521484,-1.079956,-0.05993652,0,0,0,0,0,0
8.730104,0.07454614,-1,-0.0009627763,0.01315794,0,0,0,0,0,0,0,0,0,0,0,1,0,0,0,0,0,-0.01977539,-1.087158,-0.01647949,0,0,0,0,0,0
8.740105,0.08240198,-1,-0.007144243,0.1881317,0,0,0,0,0,0,0,0,0,0,0,1,0,0,-0.2036733,0.03673617,0.0297388,-0.02514648,-0.9570313,-0.08239746,0,0,0,0,0,0
8.750105,0.1217254,-1,0.0209856,0.3267757,0,0,0,0,0,0,0,0,0,0,0,1,0,0,0,0,0,-0.02880859,-0.8874512,-0.1568604,0,0,0,0,0,0
8.760105,0.1690417,-1,0.065911,0.530757,0,0,0,0,0,0,0,0,0,0,0,1,0,0,0,0,0,-0.03686523,-0.7095947,-0.2987061,0,0,0,0,0,0
8.770105,0.2324234,-1,0.09795606,0.6421565,0,0,0,0,0,0,0,0,0,0,0,1,0,0,0.01399473,-0.007996988,0.0124953,0.07641602,-0.8189697,-0.355957,0,0,0,0,0,0
8.780106,0.2802319,-1,0.1222046,0.7073054,0,0,0,0,0,0,0,0,0,0,0,1,0,0,0,0,0,0.07531738,-0.852417,-0.3317871,0,0,0,0,0,0
8.790106,0.4172379,-1,0.1524878,0.7178082,0,0,0,0,0,0,0,0,0,0,0,1,0,0,0,0,0,0.06420898,-0.8873291,-0.1765137,0,0,0,0,0,0
8.800106,0.5968135,-0.9973595,0.1750852,0.7189671,0,0,0,0,0,0,0,0,0,0,0,1,0,0,0.1621675,0.03898479,0.08235249,0.1342773,-0.9020996,-0.1525879,0,0,0,0,0,0
8.810106,0.7008187,-0.9250807,0.1789843,0.6465352,0,0,0,0,0,0,0,0,0,0,0,1,0,0,0,0,0,0.0826416,-0.9365234,-0.1705322,0,0,0,0,0,0
8.820107,0.7896631,-0.861815,0.1630972,0.5101126,0,0,0,0,0,0,0,0,0,0,0,0,0,0,0,0,0,-0.05712891,-0.9632568,-0.1618652,0,0,0,0,0,0
8.830107,0.7976347,-0.8537496,0.1198691,0.3984837,0,0,0,0,0,0,0,0,0,0,0,0,0,0,0,0,0,-0.09802246,-1.067261,-0.1092529,0,0,0,0,0,0
8.840107,0.7976347,-0.8537496,0.05233511,0.2561666,0,0,0,0,0,0,0,0,0,0,0,0,0,0,0,0,0,-0.1417236,-1.279419,-0.02380371,0,0,0,0,0,0
8.850107,0.7731484,-0.8692912,0.02294124,0.2166672,0,0,0,0,0,0,0,0,0,0,0,0,0,0,0,0,0,-0.2219238,-1.260132,-0.04431152,0,0,0,0,0,0
8.860107,0.6766679,-0.9409287,0.002537629,0.2156985,0,0,0,0,0,0,0,0,0,0,0,0,0,0,-0.008496801,-0.01524426,-0.03423711,-0.1468506,-1.225464,0.02941895,0,0,0,0,0,0
8.870108,0.5957312,-0.979558,-0.01316958,0.2344186,0,0,0,0,0,0,0,0,0,0,0,0,0,0,0,0,0,-0.06188965,-1.215332,0.1322021,0,0,0,0,0,0
8.880108,0.4662001,-1,-0.03503053,0.3917049,0,0,0,0,0,0,0,0,0,0,0,0,0,0,0,0,0,-0.09375,-1.242676,-0.005371094,0,0,0,0,0,0
8.890108,0.3524597,-1,-0.04705063,0.6406125,0,0,0,0,0,0,0,0,0,0,0,1,0,0,-0.2241656,-0.00674746,-0.08421829,-0.02746582,-1.074219,0.004882813,0,0,0,0,0,0
8.900108,0.2722459,-1,-0.05644987,0.7790082,0,0,0,0,0,0,0,0,0,0,0,1,0,0,-0.2359849,-0.003921547,-0.07404803,-0.004150391,-1.082397,0.002319336,0,0,0,0,0,0
8.910109,0.1690417,-1,-0.09728017,0.9455633,0,0,0,0,0,0,0,0,0,0,0,1,0,0,0,0,0,-0.009521484,-0.7947998,-0.1243896,0,0,0,0,0,0
8.920109,0.1059862,-1,-0.1445604,0.9650384,0,0,0,0,0,0,0,0,0,0,0,1,0,0,0,0,0,0.1235352,-0.7657471,-0.3880615,0,0,0,0,0,0
8.930109,0.05099206,-1,-0.1746935,0.9200526,0,0,0,0,0,0,0,0,0,0,0,1,0,0,0,0,0,0.01147461,-0.8337402,-0.3601074,0,0,0,0,0,0
8.940109,0.01176485,-1,-0.1784714,0.8012227,0,0,0,0,0,0,0,0,0,0,0,1,0,0,0,0,0,0.05566406,-0.9069824,-0.3116455,0,0,0,0,0,0
8.950109,-0.01960851,-1,-0.1740949,0.5649201,0,0,0,0,0,0,0,0,0,0,0,1,0,0,0,0,0,0.06347656,-0.8226318,-0.09887695,0,0,0,0,0,0
8.96011,-0.01960851,-1,-0.1667064,0.2940095,0,0,0,0,0,0,0,0,0,0,0,1,0,0,0.1396974,0.0124953,0.02349116,0.06347656,-0.8480225,-0.1201172,0,0,0,0,0,0
8.97011,0,-1,-0.1452869,0.1403619,0,0,0,0,0,0,0,0,0,0,0,1,0,0,0,0,0,0.08886719,-0.9215088,-0.171875,0,0,0,0,0,0
8.98011,0.05884144,-1,-0.1059496,0.03771087,0,0,0,0,0,0,0,0,0,0,0,0,0,0,0,0,0,-0.03198242,-0.9893799,-0.2036133,0,0,0,0,0,0
8.99011,0.113854,-1,-0.06883083,0.006493475,0,0,0,0,0,0,0,0,0,0,0,0,0,0,0.1552042,0.01399587,0.03698909,-0.06298828,-1.102783,-0.1813965,0,0,0,0,0,0
9.000111,0.1532514,-1,-0.06805075,0,0,0,0,0,0,0,0,0,0,0,0,0,0,0,0,0,0,-0.04443359,-1.193237,-0.2392578,0,0,0,0,0,0
9.010111,0.2324234,-1,-0.05882353,0,0,0,0,0,0,0,0,0,0,0,0,0,0,0,0,0,0,-0.1048584,-1.060303,-0.08154297,0,0,0,0,0,0
9.020111,0.3202776,-1,-0.05882353,0,0,0,0,0,0,0,0,0,0,0,0,0,0,0,0.003460189,-0.002306792,0.05213351,-0.02197266,-1.080322,-0.08410645,0,0,0,0,0,0
9.030111,0.4009901,-1,-0.06279039,0.01354303,0,0,0,0,0,0,0,0,0,0,0,0,0,0,0,0,0,0.02185059,-1.011841,-0.03112793,0,0,0,0,0,0
9.040112,0.5485454,-1,-0.07420043,0.04391453,0,0,0,0,0,0,0,0,0,0,0,0,0,0,0,0,0,0.01330566,-1.125244,0.07055664,0,0,0,0,0,0
9.050112,0.6447625,-0.9651414,-0.1038035,0.1080404,0,0,0,0,0,0,0,0,0,0,0,0,0,0,0,0,0,-0.04382324,-1.000854,-0.05700684,0,0,0,0,0,0
9.060112,0.740844,-0.8930173,-0.1260152,0.328869,0,0,0,0,0,0,0,0,0,0,0,1,0,0,0,0,0,-0.09020996,-1.105469,0.01574707,0,0,0,0,0,0
9.070112,0.8136096,-0.8376572,-0.08285626,0.6232232,0,0,0,0,0,0,0,0,0,0,0,1,0,0,0,0,0,-0.07849121,-0.9509277,-0.0300293,0,0,0,0,0,0
9.080112,0.8450909,-0.7970289,-0.03407263,0.8063857,0,0,0,0,0,0,0,0,0,0,0,1,0,0,0,0,0,-0.09350586,-0.9222412,-0.241333,0,0,0,0,0,0
9.090113,0.8692912,-0.7731484,0.03499102,0.9447576,0,0,0,0,0,0,0,0,0,0,0,1,0,0,0,0,0,0.03820801,-0.9388428,-0.3933105,0,0,0,0,0,0
9.100113,0.8767824,-0.7566752,0.1294246,0.9922551,0,0,0,0,0,0,0,0,0,0,0,1,0,0,0,0,0,-0.01672363,-0.9425049,-0.2808838,0,0,0,0,0,0
9.110113,0.8680802,-0.7560699,0.2639359,0.9966533,0,0,0,0,0,0,0,0,0,0,0,1,0,0,0.09446443,-0.04148438,0.0209921,0.004150391,-0.9822998,-0.164917,0,0,0,0,0,0
9.120113,0.8767824,-0.7566752,0.3520505,1,0,0,0,0,0,0,0,0,0,0,0,1,0,0,0,0,0,-0.02160645,-0.9519043,-0.04321289,0,0,0,0,0,0
9.130114,0.8767824,-0.7566752,0.4565729,0.9885796,0,0,0,0,0,0,0,0,0,0,0,1,0,0,0,0,0,-0.0111084,-0.9229736,-0.0579834,0,0,0,0,0,0
9.140114,0.8680802,-0.7560699,0.5085434,0.9027632,0,0,0,0,0,0,0,0,0,0,0,1,0,0,0.1689364,-0.0009996236,0.02349116,-0.03027344,-0.9255371,-0.0859375,0,0,0,0,0,0
9.150114,0.8686867,-0.7646044,0.5537423,0.8443588,0,0,0,0,0,0,0,0,0,0,0,0,0,0,0,0,0,-0.06958008,-0.9854736,-0.08984375,0,0,0,0,0,0
9.160114,0.8358289,-0.7878387,0.6486081,0.7822607,0,0,0,0,0,0,0,0,0,0,0,0,0,0,0,0,0,-0.09851074,-1.115845,-0.05688477,0,0,0,0,0,0
9.170115,0.7958074,-0.8277996,0.766288,0.7742289,0,0,0,0,0,0,0,0,0,0,0,0,0,0,0.03068034,-0.006228339,0.008535132,-0.1518555,-1.124878,-0.009765625,0,0,0,0,0,0
9.180115,0.7554604,-0.8593862,0.8179268,0.778028,0,0,0,0,0,0,0,0,0,0,0,0,0,0,0,0,0,-0.1750488,-1.154663,-0.04492188,0,0,0,0,0,0
9.190115,0.6749122,-0.914526,0.8513149,0.7633857,0,0,0,0,0,0,0,0,0,0,0,0,0,0,0,0,0,-0.03942871,-1.198975,0.1445313,0,0,0,0,0,0
9.200115,0.6023977,-0.9534637,0.8507007,0.7548471,0,0,0,0,0,0,0,0,0,0,0,0,0,0,-0.1554415,0.01224539,-0.04398344,-0.05212402,-1.14917,-0.0802002,0,0,0,0,0,0
9.210115,0.5542106,-0.976846,0.8507007,0.7548471,0,0,0,0,0,0,0,0,0,0,0,0,0,0,0,0,0,-0.01391602,-0.9718018,-0.1396484,0,0,0,0,0,0
9.220116,0.4662001,-1,0.8507007,0.7548471,0,0,0,0,0,0,0,0,0,0,0,1,0,0,0,0,0,0.03381348,-1.040405,-0.01721191,0,0,0,0,0,0
9.230116,0.4091095,-1,0.8507007,0.7548471,0,0,0,0,0,0,0,0,0,0,0,1,0,0,0,0,0,0.0123291,-0.9504395,-0.1381836,0,0,0,0,0,0
9.240116,0.3042357,-1,0.8432577,0.771321,0,0,0,0,0,0,0,0,0,0,0,1,0,0,0,0,0,0.008300781,-0.8204346,-0.2095947,0,0,0,0,0,0
9.250116,0.2086106,-1,0.8345971,0.7707045,0,0,0,0,0,0,0,0,0,0,0,1,0,0,0,0,0,0.03759766,-0.8972168,-0.2779541,0,0,0,0,0,0
9.260117,0.1453634,-1,0.8345971,0.7707045,0,0,0,0,0,0,0,0,0,0,0,1,0,0,0,0,0,0.005004883,-0.9056396,-0.2669678,0,0,0,0,0,0
9.270117,0.05099206,-1,0.8432577,0.771321,0,0,0,0,0,0,0,0,0,0,0,1,0,0,0,0,0,0.009155273,-0.8581543,-0.1403809,0,0,0,0,0,0
9.280117,-0.01960851,-1,0.8389018,0.711675,0,0,0,0,0,0,0,0,0,0,0,1,0,0,0.08071961,-0.01499435,-0.0169936,0.08666992,-0.8353271,-0.1318359,0,0,0,0,0,0
9.290117,-0.05884144,-1,0.7182111,0.5031319,0,0,0,0,0,0,0,0,0,0,0,1,0,0,0.1287015,-0.003998494,-0.01574407,0.0456543,-0.9360352,-0.1384277,0,0,0,0,0,0
9.300117,-0.08240198,-1,0.573355,0.3469346,0,0,0,0,0,0,0,0,0,0,0,0,0,0,0,0,0,-0.005371094,-0.9627686,-0.1647949,0,0,0,0,0,0
9.310118,-0.09812176,-1,0.2973299,0.1411566,0,0,0,0,0,0,0,0,0,0,0,0,0,0,0,0,0,-0.06408691,-1.02832,-0.1490479,0,0,0,0,0,0
9.320118,-0.113854,-1,0.03176167,0.01107965,0,0,0,0,0,0,0,0,0,0,0,0,0,0,0,0,0,-0.06542969,-1.16333,-0.1187744,0,0,0,0,0,0
9.330118,-0.1217254,-1,0,0,0,0,0,0,0,0,0,0,0,0,0,0,0,0,0,0,0,-0.04321289,-1.105713,-0.03991699,0,0,0,0,0,0
9.340118,-0.1217254,-1,0,0,0,0,0,0,0,0,0,0,0,0,0,0,0,0,-0.06322619,0.02898908,0.01974257,-0.05175781,-1.175415,-0.02685547,0,0,0,0,0,0
9.350119,-0.1217254,-1,0,0,0,0,0,0,0,0,0,0,0,0,0,0,0,0,0,0,0,-0.001464844,-1.136597,-0.09533691,0,0,0,0,0,0
9.360119,-0.08240198,-1,0.02343045,0.008572117,0,0,0,0,0,0,0,0,0,0,0,0,0,0,0,0,0,-0.0300293,-0.9689941,-0.1365967,0,0,0,0,0,0
9.370119,0.02745281,-1,0.2377227,0.1314467,0,0,0,0,0,0,0,0,0,0,0,1,0,0,-0.3593822,0.09227251,0.1762982,-0.0003662109,-0.979248,-0.06225586,0,0,0,0,0,0
9.380119,0.09812176,-1,0.3391215,0.1869922,0,0,0,0,0,0,0,0,0,0,0,1,0,0,0,0,0,-0.02209473,-0.8702393,-0.1809082,0,0,0,0,0,0
9.39012,0.113854,-1,0.3649065,0.1905264,0,0,0,0,0,0,0,0,0,0,0,1,0,0,-0.04982672,-0.01660891,-0.0002306792,0.008178711,-0.8997803,-0.2634277,0,0,0,0,0,0
9.40012,0.1217254,-1,0.3750843,0.1442632,0,0,0,0,0,0,0,0,0,0,0,1,0,0,0,0,0,0.03112793,-0.9122314,-0.2874756,0,0,0,0,0,0
9.41012,0.1059862,-1,0.3728535,0.02193256,0,0,0,0,0,0,0,0,0,0,0,1,0,0,0,0,0,-0.005859375,-0.984375,-0.1453857,0,0,0,0,0,0
9.42012,0.02745281,-1,0.3805065,-0.1183088,0,0,0,0,0,0,0,0,0,0,0,1,0,0,0.06797441,-0.006497554,-0.001749341,0.02209473,-0.9605713,-0.1187744,0,0,0,0,0,0
9.43012,-0.035298,-1,0.3453483,-0.2227012,0,0,0,0,0,0,0,0,0,0,0,1,0,0,0,0,0,0.001708984,-0.9460449,-0.1508789,0,0,0,0,0,0
9.440121,-0.1848525,-1,0.2907175,-0.4138449,0,0,0,0,0,0,0,0,0,0,0,0,0,0,0,0,0,0.01293945,-0.9987793,-0.1502686,0,0,0,0,0,0
9.450121,-0.2802319,-1,0.2390925,-0.5531245,0,0,0,0,0,0,0,0,0,0,0,0,0,0,0,0,0,-0.001831055,-0.9824219,-0.1472168,0,0,0,0,0,0
9.460121,-0.4249173,-1,0.1166361,-0.7713033,0,0,0,0,0,0,0,0,0,0,0,0,0,0,0,0,0,-0.01818848,-1.107666,-0.2427979,0,0,0,0,0,0
9.470121,-0.5431865,-0.9317433,-0.07433837,-0.982049,0,0,0,0,0,0,0,0,0,0,0,0,0,0,0.05872789,0.003748589,-0.04098457,-0.03674316,-0.9793701,-0.1485596,0,0,0,0,0,0
9.480122,-0.6221352,-0.8757444,-0.2086106,-1,0,0,0,0,0,0,0,0,0,0,0,0,0,0,0,0,0,-0.02478027,-1.092285,-0.02441406,0,0,0,0,0,0
9.490122,-0.7006344,-0.8035524,-0.4009901,-1,0,0,0,0,0,0,0,0,0,0,0,0,0,0,0,0,0,-0.01745605,-1.02478,-0.1068115,0,0,0,0,0,0
9.500122,-0.7636887,-0.7399471,-0.6078463,-0.9097829,0,0,0,0,0,0,0,0,0,0,0,0,0,0,-0.02474068,-0.002998871,0.0002499059,0.05334473,-1.04541,-0.06140137,0,0,0,0,0,0
9.510122,-0.7955485,-0.7084735,-0.7425422,-0.7981337,0,0,0,0,0,0,0,0,0,0,0,0,0,0,0,0,0,-0.02856445,-1.069702,-0.001831055,0,0,0,0,0,0
9.520123,-0.8663375,-0.6131613,-0.9074212,-0.574568,0,0,0,0,0,0,0,0,0,0,0,0,0,0,0,0,0,0.01977539,-0.9197998,-0.1474609,0,0,0,0,0,0
