Timestamp, Left Stick X, LeftStickY, Right Stick X, Right Stick Y, D-Pad Up, D-Pad Right,D-Pad Down, D-Pad Left, Button North, Button East, Button South, Button West, L1, R1, L2, R2, L3, R3,Gyroscope X, Gyroscope Y, Gyroscope Z, Accelerometer X, Accelerometer Y, Accelerometer Z,Touch 1, Touch 2, Touch 1 Pos X, Touch 1 Pos Y, Touch 2 Pos X, Touch 2 Pos Y
0,0.4060439,0.2382572,-0.06705618,0.1406017,0,0,0,0,0,0,0,0,0,0,0,0,0,0,-0.8118697,0.05128367,-1.050874,0.09655762,-0.1737061,-0.4560547,0,0,0,0,0,0
0.01,0.4584133,0.3114411,-0.1391998,0.3309862,0,0,0,0,0,0,0,0,0,0,0,0,0,0,-0.2181501,0.0189913,-0.5267587,0.1086426,-0.2333984,-0.4715576,0,0,0,0,0,0
0.02,0.4687296,0.3900117,-0.2152409,0.63113,0,0,0,0,0,0,0,0,0,0,0,0,0,0,0.01999084,0.04098123,-0.8773482,0.1931152,-0.3964844,-0.4602051,0,0,0,0,0,0
0.03,0.4737602,0.4303623,-0.2453219,0.9228778,0,0,0,0,0,0,0,0,0,0,0,0,0,0,0.2354114,0.01624388,-0.305385,0.2230225,-0.4595947,-0.4493408,0,0,0,0,0,0
0.04,0.3920242,0.4855345,-0.2483314,1,0,0,0,0,0,0,0,0,0,0,0,0,0,0,0.9900835,-0.001499008,-0.3006266,0.4124756,-0.4023438,-0.5777588,0,0,0,0,0,0
0.05,0.2345186,0.5881004,-0.2324234,1,0,0,0,0,0,0,0,0,0,0,0,0,0,0,1.429652,-0.04573075,0.1374402,0.4189453,-0.6962891,-0.3723145,0,0,0,0,0,0
0.05999999,0.1144587,0.6978287,-0.1769445,1,0,0,0,0,0,0,0,0,0,0,0,0,0,0,0.7207286,-0.05572902,0.3006368,0.3920898,-0.9146729,-0.3248291,0,0,0,0,0,0
0.06999999,-0.06631429,0.9635076,-0.09812176,1,0,0,0,0,0,0,0,0,0,0,0,0,0,0,1.214007,-0.1810698,1.058548,0.2918701,-1.007446,-0.3286133,0,0,0,0,0,0
0.07999999,-0.1611441,1,-0.05884144,1,0,0,0,0,0,0,0,0,0,0,0,0,0,0,1.070948,-0.2336893,1.490464,0.2570801,-0.9069824,-0.4963379,0,0,0,0,0,0
0.08999999,-0.1769445,1,-0.01176485,1,0,0,0,0,0,0,0,0,0,0,0,0,0,0,0.4906548,-0.1702413,0.9215636,0.2342529,-0.8962402,-0.3988037,0,0,0,0,0,0
0.09999999,-0.2165419,1,0,0.8615917,0,0,0,0,0,0,0,0,0,0,0,0,0,0,0.9945845,-0.5502714,2.315785,0.2692871,-0.8120117,-0.2770996,0,0,0,0,0,0
0.11,-0.2802319,1,-0.07319336,0.5402367,0,0,0,0,0,0,0,0,0,0,0,0,0,0,0.8738866,-0.6892116,2.397749,0.185791,-0.9359131,-0.04125977,0,0,0,0,0,0
0.12,-0.3847782,1,-0.1579797,0.2134112,0,0,0,0,0,0,0,0,0,0,0,0,0,0,0.2539044,-0.4193421,1.173058,0.1072998,-1.132568,0.1889648,0,0,0,0,0,0
0.13,-0.540269,1,-0.2903684,0.1026555,0,0,0,0,0,0,0,0,0,0,0,0,0,0,-0.1606109,-1.007941,2.045986,-0.02404785,-1.30249,0.2537842,0,0,0,0,0,0
0.14,-0.6447625,0.9651414,-0.495485,0.09226272,0,0,0,0,0,0,0,0,0,0,0,0,0,0,-0.3213362,-0.6016114,0.8532825,-0.1087646,-1.143921,0.1226807,0,0,0,0,0,0
0.15,-0.8123925,0.8203964,-0.8156861,0.04173278,0,0,0,0,0,0,0,0,0,0,0,0,0,0,-0.7589711,-1.388542,1.581146,-0.1645508,-1.149048,0.1861572,0,0,0,0,0,0
0.16,-0.9233196,0.6755022,-0.9908403,-0.02741455,0,0,0,0,0,0,0,0,0,0,0,0,0,0,-0.4460821,-0.7294753,0.7924516,-0.1929932,-1.199829,0.3231201,0,0,0,0,0,0
0.17,-1,0.5062566,-1,-0.07454614,0,0,0,0,0,0,0,0,0,0,0,0,0,0,-0.992655,-1.3664,1.536904,-0.1646729,-1.220215,0.3699951,0,0,0,0,0,0
0.18,-1,0.4091095,-1,-0.1296006,0,0,0,0,0,0,0,0,0,0,0,0,0,0,-1.09435,-1.376146,1.499272,-0.1583252,-1.165771,0.4255371,0,0,0,0,0,0
0.19,-1,0.3444016,-1,-0.2006854,0,0,0,0,0,0,0,0,0,0,0,0,0,0,-1.218578,-1.335431,1.249774,-0.3612061,-0.9069824,0.2976074,0,0,0,0,0,0
0.2,-1,0.2962267,-1,-0.2403741,0,0,0,0,0,0,0,0,0,0,0,0,0,0,-1.091248,-1.226421,0.9384103,-0.520874,-0.7253418,0.06396484,0,0,0,0,0,0
0.21,-1,0.2403741,-1,-0.2722459,0,0,0,0,0,0,0,0,0,0,0,0,0,0,-0.5167633,-0.5459999,0.3103578,-0.6120605,-0.6514893,-0.1331787,0,0,0,0,0,0
0.22,-1,0.1532514,-1,-0.2802319,0,0,0,0,0,0,0,0,0,0,0,0,0,0,-0.5362981,-0.459577,0.1586902,-0.6229248,-0.5689697,-0.2614746,0,0,0,0,0,0
0.23,-1,0.01960851,-1,-0.2802319,0,0,0,0,0,0,0,0,0,0,0,0,0,0,-0.519259,-0.3033432,-0.001614755,-0.6959229,-0.3841553,-0.3847656,0,0,0,0,0,0
0.24,-1,-0.04314433,-1,-0.2962267,0,0,0,0,0,0,0,0,0,0,0,0,0,0,-0.4989592,-0.182698,-0.097808,-0.7974854,-0.2365723,-0.473999,0,0,0,0,0,0
0.25,-1,-0.1217254,-1,-0.3444016,0,0,0,0,0,0,0,0,0,0,0,0,0,0,-0.8754939,0.01470522,-0.4426587,-0.7663574,-0.09326172,-0.6873779,0,0,0,0,0,0
0.26,-1,-0.2006854,-1,-0.4172379,0,0,0,0,0,0,0,0,0,0,0,0,0,0,-0.643747,0.3027736,-0.614776,-0.6938477,-0.01953125,-0.7956543,0,0,0,0,0,0
0.27,-1,-0.2802319,-0.9736622,-0.5047147,0,0,0,0,0,0,0,0,0,0,0,0,0,0,-0.3458532,0.5357777,-0.7839237,-0.616333,-0.005249023,-0.8341064,0,0,0,0,0,0
0.28,-1,-0.3686016,-0.9097829,-0.6078463,0,0,0,0,0,0,0,0,0,0,0,0,0,0,0.06621967,0.3550874,-0.4100622,-0.5913086,-0.1451416,-0.7962646,0,0,0,0,0,0
0.29,-0.996623,-0.4407377,-0.8154141,-0.7438167,0,0,0,0,0,0,0,0,0,0,0,0,0,0,0.5646295,0.8152646,-0.5458106,-0.630127,-0.7205811,-0.6993408,0,0,0,0,0,0
0.3,-0.9726233,-0.4882966,-0.7038234,-0.846974,0,0,0,0,0,0,0,0,0,0,0,0,0,0,0.8501346,0.859784,-0.0612064,-0.6868896,-1.49292,-0.5783691,0,0,0,0,0,0
0.31,-0.9490002,-0.5360461,-0.5365938,-0.9579193,0,0,0,0,0,0,0,0,0,0,0,0,0,0,0.9443082,0.8380691,0.5846763,-0.7801514,-2.098999,-0.5509033,0,0,0,0,0,0
0.32,-0.860055,-0.6460322,-0.2165419,-1,0,0,0,0,0,0,0,0,0,0,0,0,0,0,0.6710634,0.7325356,1.272148,-0.7069092,-2.484863,-0.3961182,0,0,0,0,0,0
0.33,-0.6046087,-0.7528353,0.003921574,-1,0,0,0,0,0,0,0,0,0,0,0,0,0,0,-0.02574541,0.5917528,1.5546,-1.07019,-2.406494,-0.2407227,0,0,0,0,0,0
0.3399999,-0.2731431,-0.8425117,0.113854,-1,0,0,0,0,0,0,0,0,0,0,0,0,0,0,-1.091384,0.6393231,1.028307,-0.90979,-1.646729,-0.6376953,0,0,0,0,0,0
0.3499999,-0.05842002,-0.9541937,0.1611441,-1,0,0,0,0,0,0,0,0,0,0,0,0,0,0,-1.350467,0.5615247,0.6869128,-0.8759766,-0.9429932,-0.7712402,0,0,0,0,0,0
0.3599999,0.1217254,-1,0.1927661,-1,0,0,0,0,0,0,0,0,0,0,0,0,0,0,-0.5998189,0.2475407,0.1252699,-0.8846436,-0.6448975,-0.6627197,0,0,0,0,0,0
0.3699999,0.2006854,-1,0.2403741,-1,0,0,0,0,0,0,0,0,0,0,0,0,0,0,-1.178211,0.5297937,-0.06993036,-0.7268066,-0.2607422,-0.7418213,0,0,0,0,0,0
0.3799999,0.2642672,-1,0.2722459,-1,0,0,0,0,0,0,0,0,0,0,0,0,0,0,-1.061306,0.5985005,-0.3790933,-0.5823975,-0.1251221,-0.7036133,0,0,0,0,0,0
0.3899999,0.2802319,-1,0.3042357,-1,0,0,0,0,0,0,0,0,0,0,0,0,0,0,-0.9443871,0.5962846,-0.5787328,-0.4451904,-0.09338379,-0.6394043,0,0,0,0,0,0
0.3999999,0.2882255,-1,0.3122526,-1,0,0,0,0,0,0,0,0,0,0,0,0,0,0,-0.446595,0.312801,-0.3801594,-0.369751,-0.09484863,-0.5699463,0,0,0,0,0,0
0.4099999,0.3444016,-1,0.3157559,-0.9082856,0,0,0,0,0,0,0,0,0,0,0,0,0,0,-0.9102285,0.7280169,-0.9503643,-0.3024902,0.006469727,-0.5513916,0,0,0,0,0,0
0.4199999,0.4253754,-1,0.3109764,-0.8177526,0,0,0,0,0,0,0,0,0,0,0,0,0,0,-0.4113116,0.4228064,-0.547999,-0.3059082,0.06176758,-0.5317383,0,0,0,0,0,0
0.4299999,0.5320019,-1,0.319775,-0.7110291,0,0,0,0,0,0,0,0,0,0,0,0,0,0,-0.3443423,0.4685354,-0.5762361,-0.296875,0.1185303,-0.5175781,0,0,0,0,0,0
0.4399998,0.6839312,-0.923907,0.3632108,-0.5070567,0,0,0,0,0,0,0,0,0,0,0,0,0,0,-0.5107411,1.039233,-1.241633,-0.2943115,0.1711426,-0.5053711,0,0,0,0,0,0
0.4499998,0.8031714,-0.8111632,0.4016471,-0.319258,0,0,0,0,0,0,0,0,0,0,0,0,0,0,-0.2496652,1.066008,-1.306405,-0.2672119,0.1655273,-0.4820557,0,0,0,0,0,0
0.4599998,0.9280418,-0.6173669,0.4599454,-0.1040752,0,0,0,0,0,0,0,0,0,0,0,0,0,0,0.1359596,1.148242,-1.468971,-0.1364746,0.1343994,-0.4014893,0,0,0,0,0,0
0.4699998,0.9971008,-0.448894,0.4648212,0,0,0,0,0,0,0,0,0,0,0,0,0,0,0,0.4472888,1.219654,-1.593744,-0.02331543,0.08703613,-0.37854,0,0,0,0,0,0
0.4799998,1,-0.2882255,0.4680591,0.09091796,0,0,0,0,0,0,0,0,0,0,0,0,0,0,0.4103455,0.6572526,-0.9099073,0.0526123,0.05578613,-0.4416504,0,0,0,0,0,0
0.4899998,1,-0.1690417,0.4771999,0.1888201,0,0,0,0,0,0,0,0,0,0,0,0,0,0,1.233737,1.320199,-1.983173,0.08044434,-0.07861328,-0.4588623,0,0,0,0,0,0
0.4999998,1,-0.1453634,0.4907395,0.3000925,0,0,0,0,0,0,0,0,0,0,0,0,0,0,0.7549657,0.6575024,-1.024364,0.1192627,-0.3071289,-0.315918,0,0,0,0,0,0
0.5099998,1,-0.1453634,0.5128674,0.4833498,0,0,0,0,0,0,0,0,0,0,0,0,0,0,0.7185024,0.6022504,-0.9277101,0.1879883,-0.4938965,-0.177124,0,0,0,0,0,0
0.5199998,1,-0.1453634,0.6016423,0.8218512,0,0,0,0,0,0,0,0,0,0,0,0,0,0,1.492827,1.273843,-1.860536,0.3206787,-0.7779541,-0.1604004,0,0,0,0,0,0
0.5299998,1,-0.1532514,0.6095974,0.9363098,0,0,0,0,0,0,0,0,0,0,0,0,0,0,1.528811,1.287106,-1.763501,0.4078369,-0.8205566,-0.2503662,0,0,0,0,0,0
0.5399998,1,-0.1532514,0.5702448,0.9690174,0,0,0,0,0,0,0,0,0,0,0,0,0,0,0.8239397,0.6937388,-0.7909521,0.5441895,-0.9785156,-0.2791748,0,0,0,0,0,0
0.5499998,0.973848,0.1290642,0.5382023,0.9847108,0,0,0,0,0,0,0,0,0,0,0,0,0,0,1.444146,1.444647,-1.134274,0.6187744,-1.329712,-0.2385254,0,0,0,0,0,0
0.5599998,0.9282197,0.348572,0.5304679,0.9931315,0,0,0,0,0,0,0,0,0,0,0,0,0,0,1.234233,1.450395,-0.8179055,0.6645508,-1.413208,-0.2670898,0,0,0,0,0,0
0.5699998,0.91571,0.691781,0.5144897,1,0,0,0,0,0,0,0,0,0,0,0,0,0,0,0.4425834,0.6799939,-0.06897403,0.4191895,-1.241333,-0.4626465,0,0,0,0,0,0
0.5799997,0.892418,0.7323431,0.5144897,1,0,0,0,0,0,0,0,0,0,0,0,0,0,0,0.8828799,1.200498,0.01774385,0.6260986,-1.53479,-0.2154541,0,0,0,0,0,0
0.5899997,0.8842907,0.7402433,0.5392466,1,0,0,0,0,0,0,0,0,0,0,0,0,0,0,0.6147184,1.029029,0.2031569,0.6235352,-1.410034,-0.1832275,0,0,0,0,0,0
0.5999997,0.8842907,0.7402433,0.5923551,0.9263003,0,0,0,0,0,0,0,0,0,0,0,0,0,0,0.4427151,0.8297015,0.3902158,0.5262451,-1.330566,-0.4041748,0,0,0,0,0,0
0.6099997,0.8755721,0.7396386,0.5926555,0.8124482,0,0,0,0,0,0,0,0,0,0,0,0,0,0,0.3820913,0.7496879,0.5220315,0.3931885,-1.251953,-0.395752,0,0,0,0,0,0
0.6199997,0.8755721,0.7396386,0.5821223,0.6823552,0,0,0,0,0,0,0,0,0,0,0,0,0,0,0.1207046,0.3183801,0.305385,0.2962646,-1.162354,-0.3718262,0,0,0,0,0,0
0.6299997,0.8674718,0.7475448,0.5668193,0.521774,0,0,0,0,0,0,0,0,0,0,0,0,0,0,0.04947814,0.5052884,0.6304868,0.2185059,-1.001221,-0.3625488,0,0,0,0,0,0
0.6399997,0.8680802,0.7560699,0.5571589,0.431706,0,0,0,0,0,0,0,0,0,0,0,0,0,0,-0.05148061,0.1984253,0.3046353,0.1656494,-0.8328857,-0.3414307,0,0,0,0,0,0
0.6499997,0.8593862,0.7554604,0.5550844,0.3374042,0,0,0,0,0,0,0,0,0,0,0,0,0,0,-0.07210331,0.3146351,0.5364445,0.1688232,-0.5053711,-0.3273926,0,0,0,0,0,0
0.6599997,0.8599966,0.763997,0.6198338,0.2897448,0,0,0,0,0,0,0,0,0,0,0,0,0,0,0.03737003,0.1125715,0.2023057,0.1519775,-0.3747559,-0.3188477,0,0,0,0,0,0
0.6699997,0.8593862,0.7554604,0.7412971,0.2445904,0,0,0,0,0,0,0,0,0,0,0,0,0,0,0.1614325,0.1724277,0.1891693,0.09484863,-0.3187256,-0.2592773,0,0,0,0,0,0
0.6799996,0.8593862,0.7554604,0.8772462,0.2434648,0,0,0,0,0,0,0,0,0,0,0,0,0,0,0.1241984,0.1259478,-0.07746576,0.08227539,-0.3203125,-0.2432861,0,0,0,0,0,0
0.6899996,0.8593862,0.7554604,1,0.2483314,0,0,0,0,0,0,0,0,0,0,0,0,0,0,0.1346599,0.05048071,-0.4101695,0.09667969,-0.3395996,-0.1811523,0,0,0,0,0,0
0.6999996,0.8593862,0.7554604,1,0.2483314,0,0,0,0,0,0,0,0,0,0,0,0,0,0,0.2099195,0.02429839,-0.6035187,0.1837158,-0.4829102,-0.1395264,0,0,0,0,0,0
0.7099996,0.8999631,0.7159706,1,0.2562958,0,0,0,0,0,0,0,0,0,0,0,0,0,0,0.3985797,0.03567703,-0.6425347,0.2459717,-0.7849121,-0.1834717,0,0,0,0,0,0
0.7199996,0.9380392,0.6346734,1,0.3122526,0,0,0,0,0,0,0,0,0,0,0,0,0,0,0.296864,0.03498398,-0.251135,0.3670654,-0.9522705,-0.2305908,0,0,0,0,0,0
0.7299996,0.9915852,0.5057483,1,0.3686016,0,0,0,0,0,0,0,0,0,0,0,0,0,0,0.7269522,0.08221851,-0.1704543,0.557373,-1.180298,-0.2319336,0,0,0,0,0,0
0.7399996,1,0.4253754,1,0.3847782,0,0,0,0,0,0,0,0,0,0,0,0,0,0,0.7732098,0.0556881,0.3123649,0.7250977,-1.447266,-0.1868896,0,0,0,0,0,0
0.7499996,1,0.4091095,1,0.3847782,0,0,0,0,0,0,0,0,0,0,0,0,0,0,0.7204055,0.001922667,0.6950291,0.8356934,-1.565674,-0.1612549,0,0,0,0,0,0
0.7599996,0.9857191,0.4077473,1,0.3847782,0,0,0,0,0,0,0,0,0,0,0,0,0,0,0.3288762,-0.05372977,0.5662868,0.8416748,-1.661743,-0.1655273,0,0,0,0,0,0
0.7699996,0.9135678,0.4038519,1,0.3847782,0,0,0,0,0,0,0,0,0,0,0,0,0,0,0.5150344,-0.2339031,1.450146,0.7590332,-1.707275,-0.1090088,0,0,0,0,0,0
0.7799996,0.7684041,0.3708219,1,0.3605264,0,0,0,0,0,0,0,0,0,0,0,0,0,0,0.3870888,-0.3413572,1.673801,0.6099854,-1.67334,-0.09692383,0,0,0,0,0,0
0.7899995,0.6205638,0.29743,1,0.3202776,0,0,0,0,0,0,0,0,0,0,0,0,0,0,0.2591573,-0.3713232,1.694991,0.5633545,-1.742554,-0.06738281,0,0,0,0,0,0
0.7999995,0.3207976,0.1775288,1,0.2802319,0,0,0,0,0,0,0,0,0,0,0,0,0,0,0.07771675,-0.4465639,1.795251,0.4611816,-1.630737,0.02563477,0,0,0,0,0,0
0.8099995,0.09245497,0.06707518,1,0.2642672,0,0,0,0,0,0,0,0,0,0,0,0,0,0,-0.06447572,-0.2339119,0.8926639,0.381958,-1.670044,0.08459473,0,0,0,0,0,0
0.8199995,0,0,1,0.2642672,0,0,0,0,0,0,0,0,0,0,0,0,0,0,-0.4153824,-0.4578822,1.758656,0.2852783,-1.636597,0.1298828,0,0,0,0,0,0
0.8299995,0,0,0.8875496,0.2674276,0,0,0,0,0,0,0,0,0,0,0,0,0,0,-0.3739311,-0.2286031,0.8648165,0.262207,-1.547852,0.1151123,0,0,0,0,0,0
0.8399995,0,0,0.6102167,0.2813574,0,0,0,0,0,0,0,0,0,0,0,0,0,0,-1.152771,-0.5307788,1.872219,0.1801758,-1.262695,0.04296875,0,0,0,0,0,0
0.8499995,-0.04503901,0.01901647,0.3898305,0.2949152,0,0,0,0,0,0,0,0,0,0,0,0,0,0,-1.312451,-0.5510201,1.811245,0.1109619,-1.102905,0.04223633,0,0,0,0,0,0
0.8599995,-0.2227101,0.1347259,0.1790997,0.2883809,0,0,0,0,0,0,0,0,0,0,0,0,0,0,-0.7557154,-0.2658999,0.8216906,0.1464844,-0.9831543,0.0168457,0,0,0,0,0,0
0.8699995,-0.4659292,0.3047808,-0.0512372,0.3285208,0,0,0,0,0,0,0,0,0,0,0,0,0,0,-1.568074,-0.4926734,1.410129,0.1616211,-0.8526611,-0.05224609,0,0,0,0,0,0
0.8799995,-0.6599043,0.4336514,-0.2285189,0.5168043,0,0,0,0,0,0,0,0,0,0,0,0,0,0,-0.7633176,-0.2382917,0.5935377,0.1654053,-0.694458,-0.1947021,0,0,0,0,0,0
0.8899994,-0.9156972,0.5668602,-0.546417,0.7479324,0,0,0,0,0,0,0,0,0,0,0,0,0,0,-1.452142,-0.5752604,1.108287,0.2236328,-0.4121094,-0.3216553,0,0,0,0,0,0
0.8999994,-0.9695654,0.5785473,-0.7529836,0.8246963,0,0,0,0,0,0,0,0,0,0,0,0,0,0,-0.5650373,-0.3141317,0.5268016,0.2833252,-0.3630371,-0.4509277,0,0,0,0,0,0
0.9099994,-1,0.5062566,-0.8426419,0.7627706,0,0,0,0,0,0,0,0,0,0,0,0,0,0,-0.8213565,-0.6002892,1.071167,0.1330566,-0.4837646,-0.4135742,0,0,0,0,0,0
0.9199994,-1,0.4416777,-0.888797,0.6815439,0,0,0,0,0,0,0,0,0,0,0,0,0,0,-0.7378275,-0.6130984,1.118631,0.1314697,-0.4995117,-0.364624,0,0,0,0,0,0
0.9299994,-1,0.3928797,-0.9457361,0.6185194,0,0,0,0,0,0,0,0,0,0,0,0,0,0,-0.3565986,-0.3183093,0.580799,0.07104492,-0.5125732,-0.4033203,0,0,0,0,0,0
0.9399994,-1,0.3444016,-0.976846,0.5542106,0,0,0,0,0,0,0,0,0,0,0,0,0,0,-0.7665008,-0.7124659,1.295122,0.0579834,-0.4176025,-0.4373779,0,0,0,0,0,0
0.9499994,-1,0.3202776,-0.9926133,0.5222183,0,0,0,0,0,0,0,0,0,0,0,0,0,0,-0.7599323,-0.7776756,1.411412,0.006713867,-0.3009033,-0.4724121,0,0,0,0,0,0
0.9599994,-1,0.3202776,-1,0.4580168,0,0,0,0,0,0,0,0,0,0,0,0,0,0,-0.5902164,-0.7473676,1.355923,-0.05615234,-0.2150879,-0.4663086,0,0,0,0,0,0
0.9699994,-1,0.3122526,-1,0.4091095,0,0,0,0,0,0,0,0,0,0,0,0,0,0,-0.1494801,-0.3716242,0.5660869,-0.1262207,-0.1915283,-0.4693604,0,0,0,0,0,0
0.9799994,-1,0.3122526,-1,0.336352,0,0,0,0,0,0,0,0,0,0,0,0,0,0,0.1044048,-0.8313897,0.9000412,-0.3062744,-0.3546143,-0.4969482,0,0,0,0,0,0
0.9899994,-1,0.3122526,-1,0.2802319,0,0,0,0,0,0,0,0,0,0,0,0,0,0,0.2956442,-0.8228228,0.6374382,-0.4440918,-0.5419922,-0.4729004,0,0,0,0,0,0
0.9999993,-1,0.3122526,-1,0.2483314,0,0,0,0,0,0,0,0,0,0,0,0,0,0,0.2815153,-0.7778617,0.3926036,-0.6087646,-0.7202148,-0.4160156,0,0,0,0,0,0
1.009999,-1,0.3042357,-1,0.2403741,0,0,0,0,0,0,0,0,0,0,0,0,0,0,0.0887166,-0.3751087,0.05622883,-0.708374,-0.7850342,-0.4056396,0,0,0,0,0,0
1.019999,-1,0.2244794,-1,0.2403741,0,0,0,0,0,0,0,0,0,0,0,0,0,0,0.1065898,-0.6612577,-0.12335,-0.7766113,-0.8253174,-0.3448486,0,0,0,0,0,0
1.029999,-1,0.09026043,-1,0.2403741,0,0,0,0,0,0,0,0,0,0,0,0,0,0,-0.007438073,-0.529318,-0.3248737,-0.828125,-0.9185791,-0.2362061,0,0,0,0,0,0
1.039999,-1,-0.05099206,-1,0.2483314,0,0,0,0,0,0,0,0,0,0,0,0,0,0,-0.1109138,-0.4241471,-0.4554402,-0.8399658,-0.9615479,-0.2373047,0,0,0,0,0,0
1.049999,-1,-0.1690417,-1,0.2802319,0,0,0,0,0,0,0,0,0,0,0,0,0,0,-0.1099586,-0.1704358,-0.3031359,-0.8233643,-0.9729004,-0.2529297,0,0,0,0,0,0
1.059999,-1,-0.3686016,-1,0.3524597,0,0,0,0,0,0,0,0,0,0,0,0,0,0,-0.2753853,-0.2656389,-0.708455,-0.7813721,-0.9089355,-0.3244629,0,0,0,0,0,0
1.069999,-0.9568346,-0.5201051,-1,0.433522,0,0,0,0,0,0,0,0,0,0,0,0,0,0,-0.2576898,-0.228797,-0.7667446,-0.7149658,-0.8515625,-0.3720703,0,0,0,0,0,0
1.079999,-0.8700544,-0.6634662,-0.9395315,0.5272477,0,0,0,0,0,0,0,0,0,0,0,0,0,0,-0.1169544,-0.1098033,-0.4053034,-0.6243896,-0.8240967,-0.3961182,0,0,0,0,0,0
1.089999,-0.751722,-0.8074051,-0.8318937,0.618992,0,0,0,0,0,0,0,0,0,0,0,0,0,0,-0.2061433,-0.2161005,-0.8643056,-0.5939941,-0.8435059,-0.3218994,0,0,0,0,0,0
1.099999,-0.648488,-0.8951521,-0.7376353,0.628356,0,0,0,0,0,0,0,0,0,0,0,0,0,0,-0.1726779,-0.1846727,-0.8106612,-0.5909424,-0.96875,-0.314209,0,0,0,0,0,0
1.109999,-0.5685782,-0.9423288,-0.6689712,0.6225685,0,0,0,0,0,0,0,0,0,0,0,0,0,0,-0.08571772,-0.07922018,-0.3548664,-0.6566162,-1.125732,-0.2932129,0,0,0,0,0,0
1.119999,-0.4811167,-0.9900665,-0.5584027,0.6039866,0,0,0,0,0,0,0,0,0,0,0,0,0,0,-0.2396493,-0.1474386,-0.5807586,-0.7160645,-1.297119,-0.2628174,0,0,0,0,0,0
1.129999,-0.4009901,-1,-0.4740848,0.5786074,0,0,0,0,0,0,0,0,0,0,0,0,0,0,-0.3393165,-0.1264656,-0.4335471,-0.7557373,-1.322388,-0.2653809,0,0,0,0,0,0
1.139999,-0.3283107,-1,-0.3907211,0.5440884,0,0,0,0,0,0,0,0,0,0,0,0,0,0,-0.2446579,-0.04448325,-0.1424464,-0.7800293,-1.32605,-0.2650146,0,0,0,0,0,0
1.149999,-0.2086106,-1,-0.3258655,0.452007,0,0,0,0,0,0,0,0,0,0,0,0,0,0,-0.612745,0.000250618,-0.05447576,-0.8203125,-1.368774,-0.2091064,0,0,0,0,0,0
1.159999,-0.06669273,-1,-0.3004148,0.3268249,0,0,0,0,0,0,0,0,0,0,0,0,0,0,-0.3748589,0.05897779,0.08821679,-0.8758545,-1.47168,-0.1630859,0,0,0,0,0,0
1.169999,0.1611441,-1,-0.2644612,0.1424022,0,0,0,0,0,0,0,0,0,0,0,0,0,0,-0.9286139,0.2598926,0.4185769,-1.083008,-1.700928,0.006103516,0,0,0,0,0,0
1.179999,0.3444016,-1,-0.2822682,0.04276791,0,0,0,0,0,0,0,0,0,0,0,0,0,0,-1.149759,0.3769161,0.5946499,-1.171875,-1.784546,0.01879883,0,0,0,0,0,0
1.189999,0.5320019,-1,-0.391474,-0.02864444,0,0,0,0,0,0,0,0,0,0,0,0,0,0,-0.8191248,0.2251469,0.3920704,-1.170532,-1.671509,-0.05639648,0,0,0,0,0,0
1.199999,0.7019819,-0.9426614,-0.6068965,-0.1256886,0,0,0,0,0,0,0,0,0,0,0,0,0,0,-0.9953752,0.2164185,0.4313376,-1.089478,-1.309937,-0.2034912,0,0,0,0,0,0
1.209999,0.8686867,-0.7646044,-0.9875154,-0.2635998,0,0,0,0,0,0,0,0,0,0,0,0,0,0,-2.246562,0.3968345,0.8391511,-0.9627686,-0.7357178,-0.3939209,0,0,0,0,0,0
1.219999,0.9474515,-0.6436275,-1,-0.2403741,0,0,0,0,0,0,0,0,0,0,0,0,0,0,-1.157064,0.1764336,0.3548664,-0.7751465,-0.4744873,-0.5018311,0,0,0,0,0,0
1.229999,0.9873765,-0.579634,-1,-0.1848525,0,0,0,0,0,0,0,0,0,0,0,0,0,0,-2.199331,0.3221155,0.5590153,-0.5583496,-0.03259277,-0.4080811,0,0,0,0,0,0
1.239999,0.9947014,-0.5552751,-1,-0.1611441,0,0,0,0,0,0,0,0,0,0,0,0,0,0,-1.941694,0.2960279,0.3652301,-0.503418,0.1541748,-0.4632568,0,0,0,0,0,0
1.249999,0.9941757,-0.5469962,-1,-0.1296006,0,0,0,0,0,0,0,0,0,0,0,0,0,0,-1.77001,0.2808824,0.1974168,-0.3325195,0.302124,-0.5612793,0,0,0,0,0,0
1.259999,0.9941757,-0.5469962,-1,-0.1059862,0,0,0,0,0,0,0,0,0,0,0,0,0,0,-1.54773,0.2076471,0.09545294,-0.2236328,0.3898926,-0.6158447,0,0,0,0,0,0
1.269999,1,-0.547518,-1,-0.08240198,0,0,0,0,0,0,0,0,0,0,0,0,0,0,-0.6230154,0.07147308,-0.004498306,-0.1987305,0.4238281,-0.6408691,0,0,0,0,0,0
1.279999,1,-0.4253754,-1,-0.05099206,0,0,0,0,0,0,0,0,0,0,0,0,0,0,-0.9467142,0.09605552,-0.09663141,-0.1109619,0.3630371,-0.5998535,0,0,0,0,0,0
1.289999,1,-0.2722459,-1,-0.003921574,0,0,0,0,0,0,0,0,0,0,0,0,0,0,-0.7849239,0.06497312,-0.1746765,-0.07275391,0.3518066,-0.5938721,0,0,0,0,0,0
1.299999,1,-0.1059862,-1,0.07454614,0,0,0,0,0,0,0,0,0,0,0,0,0,0,-0.5389645,0.01641644,-0.244857,-0.03479004,0.3969727,-0.6379395,0,0,0,0,0,0
1.309999,1,0.06669273,-1,0.1927661,0,0,0,0,0,0,0,0,0,0,0,0,0,0,-0.1456833,-0.03048604,-0.1751698,-0.05419922,0.4277344,-0.6727295,0,0,0,0,0,0
1.319999,1,0.2086106,-1,0.3605264,0,0,0,0,0,0,0,0,0,0,0,0,0,0,0.0007497177,-0.06222657,-0.2259149,-0.1094971,0.513916,-0.7596436,0,0,0,0,0,0
1.329999,1,0.3122526,-0.9297888,0.6424721,0,0,0,0,0,0,0,0,0,0,0,0,0,0,0.4330718,-0.1719286,-0.5800086,-0.1469727,0.494751,-0.8548584,0,0,0,0,0,0
1.339999,1,0.3686016,-0.8099219,0.7859832,0,0,0,0,0,0,0,0,0,0,0,0,0,0,0.7244463,-0.2031651,-0.6359844,-0.1402588,0.4318848,-0.7832031,0,0,0,0,0,0
1.349999,1,0.4498426,-0.7062927,0.8818683,0,0,0,0,0,0,0,0,0,0,0,0,0,0,0.4533293,-0.1074595,-0.3306255,-0.1876221,0.3206787,-0.6704102,0,0,0,0,0,0
1.359999,1,0.5734303,-0.5935025,0.9440273,0,0,0,0,0,0,0,0,0,0,0,0,0,0,0.9583224,-0.2038365,-0.5930173,-0.3476563,0.317749,-0.6533203,0,0,0,0,0,0
1.369999,1,0.6385895,-0.5211732,0.9747131,0,0,0,0,0,0,0,0,0,0,0,0,0,0,1.074534,-0.1855477,-0.5256201,-0.4224854,0.2695313,-0.6594238,0,0,0,0,0,0
1.379999,0.9520346,0.7110133,-0.481615,1,0,0,0,0,0,0,0,0,0,0,0,0,0,0,1.20045,-0.1767326,-0.4811994,-0.4841309,0.137207,-0.6091309,0,0,0,0,0,0
1.389999,0.9116721,0.7590574,-0.4172379,1,0,0,0,0,0,0,0,0,0,0,0,0,0,0,0.7111742,-0.08421143,-0.2323936,-0.5257568,0.09350586,-0.592041,0,0,0,0,0,0
1.399999,0.8630162,0.8068197,-0.2962267,1,0,0,0,0,0,0,0,0,0,0,0,0,0,0,1.684798,-0.1734278,-0.5447736,-0.512207,0.03381348,-0.5369873,0,0,0,0,0,0
1.409999,0.8222179,0.8382612,-0.1769445,1,0,0,0,0,0,0,0,0,0,0,0,0,0,0,1.892462,-0.1879216,-0.7007089,-0.512085,-0.05773926,-0.4801025,0,0,0,0,0,0
1.419999,0.8062198,0.8543524,-0.035298,1,0,0,0,0,0,0,0,0,0,0,0,0,0,0,0.9424722,-0.08073061,-0.4417118,-0.5527344,-0.1330566,-0.34021,0,0,0,0,0,0
1.429999,0.7982369,0.8624167,0.1374799,1,0,0,0,0,0,0,0,0,0,0,0,0,0,0,2.044858,-0.08759614,-1.198436,-0.5415039,-0.300415,-0.1417236,0,0,0,0,0,0
1.439999,0.77375,0.8779858,0.2802319,1,0,0,0,0,0,0,0,0,0,0,0,0,0,0,3.257131,0.0446359,-2.109657,-0.4715576,-0.5998535,0.03210449,0,0,0,0,0,0
1.449999,0.765208,0.877385,0.4091095,1,0,0,0,0,0,0,0,0,0,0,0,0,0,0,2.283047,0.1679292,-1.539857,-0.3735352,-0.8514404,0.08581543,0,0,0,0,0,0
1.459999,0.7487553,0.8848926,0.5806994,1,0,0,0,0,0,0,0,0,0,0,0,0,0,0,2.115075,0.2773167,-1.541313,-0.2818604,-1.068481,0.2069092,0,0,0,0,0,0
1.469999,0.7402433,0.8842907,0.6929545,0.9332856,0,0,0,0,0,0,0,0,0,0,0,0,0,0,1.056516,0.2231478,-0.7958855,-0.2457275,-1.182007,0.307251,0,0,0,0,0,0
1.479999,0.731741,0.8836871,0.7970289,0.8450909,0,0,0,0,0,0,0,0,0,0,0,0,0,0,1.914203,0.6374828,-1.48938,-0.1951904,-1.469849,0.3614502,0,0,0,0,0,0
1.489999,0.7323431,0.892418,0.8606049,0.772543,0,0,0,0,0,0,0,0,0,0,0,0,0,0,0.8011983,0.4125946,-0.6445073,-0.1680908,-1.576904,0.3536377,0,0,0,0,0,0
1.499999,0.7323431,0.892418,0.9309547,0.6592598,0,0,0,0,0,0,0,0,0,0,0,0,0,0,1.223471,0.9919947,-1.061381,-0.1411133,-1.703003,0.3569336,0,0,0,0,0,0
1.509999,0.7323431,0.892418,0.9790122,0.5874074,0,0,0,0,0,0,0,0,0,0,0,0,0,0,0.8794317,1.139189,-0.9994208,-0.1153564,-1.748413,0.3292236,0,0,0,0,0,0
1.519999,0.6996371,0.9075292,1,0.5309846,0,0,0,0,0,0,0,0,0,0,0,0,0,0,0.4170736,1.399417,-1.003581,-0.05981445,-1.544556,0.1289063,0,0,0,0,0,0
1.529999,0.6845161,0.9327032,1,0.5144897,0,0,0,0,0,0,0,0,0,0,0,0,0,0,0.08521792,0.7112322,-0.4643252,-0.0390625,-1.246826,-0.08081055,0,0,0,0,0,0
1.539999,0.6682492,0.9403506,1,0.4908059,0,0,0,0,0,0,0,0,0,0,0,0,0,0,0.2234632,1.318189,-0.7743815,-0.0645752,-0.993042,-0.2800293,0,0,0,0,0,0
1.549999,0.6682492,0.9403506,1,0.433522,0,0,0,0,0,0,0,0,0,0,0,0,0,0,0.1914469,0.5872576,-0.3208465,-0.1149902,-0.9549561,-0.2629395,0,0,0,0,0,0
1.559999,0.6688248,0.9491705,1,0.3444016,0,0,0,0,0,0,0,0,0,0,0,0,0,0,0.5315591,1.150885,-0.5964133,-0.00378418,-1.073364,-0.1833496,0,0,0,0,0,0
1.569999,0.6688248,0.9491705,1,0.2642672,0,0,0,0,0,0,0,0,0,0,0,0,0,0,0.5185876,1.053129,-0.5955734,0.0793457,-1.293945,-0.1734619,0,0,0,0,0,0
1.579999,0.6688248,0.9491705,1,0.1374799,0,0,0,0,0,0,0,0,0,0,0,0,0,0,0.1854302,0.4985623,-0.3181302,0.1020508,-1.303589,-0.215332,0,0,0,0,0,0
1.589999,0.6688248,0.9491705,0.8739024,-0.165541,0,0,0,0,0,0,0,0,0,0,0,0,0,0,0.1914947,0.8937927,-0.6264642,0.04711914,-1.322266,-0.2106934,0,0,0,0,0,0
1.599999,0.6688248,0.9491705,0.5761137,-0.5309283,0,0,0,0,0,0,0,0,0,0,0,0,0,0,0.09830451,0.8237079,-0.6238307,0.1148682,-1.256958,-0.2913818,0,0,0,0,0,0
1.609999,0.6688248,0.9491705,0.3846029,-0.8585581,0,0,0,0,0,0,0,0,0,0,0,0,0,0,-0.001999491,0.6847084,-0.5767544,0.07385254,-1.350708,-0.2207031,0,0,0,0,0,0
1.619999,0.6688248,0.9491705,0.3263068,-0.9631947,0,0,0,0,0,0,0,0,0,0,0,0,0,0,-0.02191453,0.2892718,-0.2410598,0.104248,-1.343506,-0.2298584,0,0,0,0,0,0
1.629999,0.6682492,0.9403506,0.2483314,-1,0,0,0,0,0,0,0,0,0,0,0,0,0,0,-0.05972552,0.5595162,-0.4045805,0.1201172,-1.419556,-0.1635742,0,0,0,0,0,0
1.639999,0.6772434,0.9497437,0.1927661,-1,0,0,0,0,0,0,0,0,0,0,0,0,0,0,-0.1436894,0.4867975,-0.3043736,0.131958,-1.44104,-0.2005615,0,0,0,0,0,0
1.649999,0.6935343,0.9420841,0.1611441,-1,0,0,0,0,0,0,0,0,0,0,0,0,0,0,-0.1384479,0.1891788,-0.1092089,0.1213379,-1.407593,-0.2143555,0,0,0,0,0,0
1.659999,0.725636,0.9180699,0.1532514,-1,0,0,0,0,0,0,0,0,0,0,0,0,0,0,-0.4039811,0.2653109,-0.1569336,0.1202393,-1.265747,-0.2166748,0,0,0,0,0,0
1.669999,0.7572768,0.885493,0.1532514,-1,0,0,0,0,0,0,0,0,0,0,0,0,0,0,-0.4861781,0.1954934,-0.1364804,0.09057617,-1.106934,-0.1903076,0,0,0,0,0,0
1.679999,0.7976347,0.8537496,0.1532514,-1,0,0,0,0,0,0,0,0,0,0,0,0,0,0,-0.2461347,0.06412882,-0.07197192,0.1217041,-0.980835,-0.1746826,0,0,0,0,0,0
1.689999,0.836441,0.7964199,0.1532514,-1,0,0,0,0,0,0,0,0,0,0,0,0,0,0,-0.5267801,0.0959598,-0.1869222,0.1566162,-0.8220215,-0.1826172,0,0,0,0,0,0
1.699999,0.8612111,0.7810984,0.1532514,-1,0,0,0,0,0,0,0,0,0,0,0,0,0,0,-0.5200118,0.08396155,-0.2116531,0.1074219,-0.755127,-0.1818848,0,0,0,0,0,0
1.709999,0.892418,0.7323431,0.1532514,-1,0,0,0,0,0,0,0,0,0,0,0,0,0,0,-0.5251553,0.1090598,-0.231536,0.03601074,-0.630127,-0.2116699,0,0,0,0,0,0
1.719999,0.9168916,0.7086892,0.1532514,-1,0,0,0,0,0,0,0,0,0,0,0,0,0,0,-0.5120324,0.08932762,-0.2325934,0.008178711,-0.5217285,-0.2226563,0,0,0,0,0,0
1.729999,0.9409287,0.6766679,0.1453634,-1,0,0,0,0,0,0,0,0,0,0,0,0,0,0,-0.1979228,0.03091102,-0.1070352,-0.004272461,-0.4519043,-0.1883545,0,0,0,0,0,0
1.739999,0.9728824,0.6285701,0.1296006,-1,0,0,0,0,0,0,0,0,0,0,0,0,0,0,-0.1613367,0.007189673,-0.1846139,0.09301758,-0.4001465,-0.1728516,0,0,0,0,0,0
1.749999,1,0.5723898,0.09812176,-1,0,0,0,0,0,0,0,0,0,0,0,0,0,0,0.09896018,-0.07771811,-0.1924199,0.1435547,-0.5454102,-0.131958,0,0,0,0,0,0
1.759999,1,0.5072563,0.05884144,-1,0,0,0,0,0,0,0,0,0,0,0,0,0,0,0.1181959,-0.07821418,-0.1049519,0.1915283,-0.7800293,-0.1137695,0,0,0,0,0,0
1.769999,1,0.4498426,-0.01176485,-1,0,0,0,0,0,0,0,0,0,0,0,0,0,0,0.1054603,-0.09721339,-0.08321866,0.230957,-1.063843,-0.06896973,0,0,0,0,0,0
1.779999,1,0.4091095,-0.07240566,-0.8345705,0,0,0,0,0,0,0,0,0,0,0,0,0,0,0.05904717,-0.1941592,-0.002496862,0.2290039,-1.384888,0.08837891,0,0,0,0,0,0
1.789999,1,0.4009901,-0.05022722,-0.3102269,0,0,0,0,0,0,0,0,0,0,0,0,0,0,-0.065148,-0.1858135,0.1560939,0.2329102,-1.382568,0.05883789,0,0,0,0,0,0
1.799999,1,0.4009901,0,0,0,0,0,0,0,0,0,0,0,0,0,0,0,0,-0.05051875,-0.09527052,0.1490188,0.222168,-1.220093,-0.1982422,0,0,0,0,0,0
1.809999,1,0.3928797,0.06444506,0.2139576,0,0,0,0,0,0,0,0,0,0,0,0,0,0,-0.02748741,-0.1067011,0.2633794,0.416626,-1.365479,-0.04174805,0,0,0,0,0,0
1.819999,1,0.3928797,0.3565825,0.9286818,0,0,0,0,0,0,0,0,0,0,0,0,0,0,-0.1536861,-0.1569344,0.674719,0.3428955,-1.240356,-0.237793,0,0,0,0,0,0
1.829999,1,0.4091095,0.4253754,1,0,0,0,0,0,0,0,0,0,0,0,0,0,0,-0.1027068,-0.172928,0.7346941,0.4316406,-1.117432,-0.2896729,0,0,0,0,0,0
1.839999,1,0.5154955,0.4498426,1,0,0,0,0,0,0,0,0,0,0,0,0,0,0,-0.04272347,-0.08144942,0.4334808,0.4082031,-1.087891,-0.2958984,0,0,0,0,0,0
1.849999,0.9244941,0.6923701,0.4743927,1,0,0,0,0,0,0,0,0,0,0,0,0,0,0,-0.1026914,-0.1248753,0.8817584,0.2532959,-0.9931641,-0.3199463,0,0,0,0,0,0
1.859999,0.8444824,0.7884504,0.4743927,1,0,0,0,0,0,0,0,0,0,0,0,0,0,0,-0.1591832,-0.1007083,0.9386083,0.1237793,-0.9289551,-0.3012695,0,0,0,0,0,0
1.869999,0.765208,0.877385,0.4825947,1,0,0,0,0,0,0,0,0,0,0,0,0,0,0,-0.1179556,-0.02649003,0.4698231,0.137085,-0.8602295,-0.3312988,0,0,0,0,0,0
1.879999,0.6525872,0.956861,0.4825947,1,0,0,0,0,0,0,0,0,0,0,0,0,0,0,-0.2881296,-0.06622212,0.9428566,0.1501465,-0.7513428,-0.258667,0,0,0,0,0,0
1.889999,0.547518,1,0.4743927,1,0,0,0,0,0,0,0,0,0,0,0,0,0,0,-0.2681376,-0.1007082,0.9338602,0.1159668,-0.668335,-0.2401123,0,0,0,0,0,0
1.899999,0.4253754,1,0.4416777,1,0,0,0,0,0,0,0,0,0,0,0,0,0,0,-0.09606872,-0.1320538,0.8617313,0.08251953,-0.6815186,-0.1898193,0,0,0,0,0,0
1.909999,0.336352,1,0.3928797,1,0,0,0,0,0,0,0,0,0,0,0,0,0,0,0.006170659,-0.148866,0.8622851,0.06298828,-0.8707275,-0.1778564,0,0,0,0,0,0
1.919999,0.2324234,1,0.3202776,1,0,0,0,0,0,0,0,0,0,0,0,0,0,0,-0.005247597,-0.09870479,0.4622883,0.06433105,-1.057129,-0.2144775,0,0,0,0,0,0
1.929999,0.113854,1,0.2562958,1,0,0,0,0,0,0,0,0,0,0,0,0,0,0,-0.07421601,-0.1106993,0.4845281,0.04724121,-1.119141,-0.222168,0,0,0,0,0,0
1.939999,-0.07454614,1,0.1453634,1,0,0,0,0,0,0,0,0,0,0,0,0,0,0,-0.318368,-0.3063726,0.9531021,0.02636719,-1.08374,-0.1700439,0,0,0,0,0,0
1.949998,-0.2483314,1,0.06669273,1,0,0,0,0,0,0,0,0,0,0,0,0,0,0,-0.4085619,-0.3545869,0.9228277,0.0411377,-1.004639,-0.1737061,0,0,0,0,0,0
1.959998,-0.3928797,1,-0.05875981,0.9910821,0,0,0,0,0,0,0,0,0,0,0,0,0,0,-0.4280716,-0.4178252,0.9051225,0.06945801,-0.8781738,-0.2419434,0,0,0,0,0,0
1.969998,-0.4990265,1,-0.2067378,0.7480148,0,0,0,0,0,0,0,0,0,0,0,0,0,0,-0.1682277,-0.2477172,0.4279434,0.07800293,-0.7307129,-0.2561035,0,0,0,0,0,0
1.979998,-0.5879496,0.9879154,-0.3503499,0.4635943,0,0,0,0,0,0,0,0,0,0,0,0,0,0,-0.1894219,-0.5367758,0.705207,-0.006469727,-0.5610352,-0.2890625,0,0,0,0,0,0
1.989998,-0.6525872,0.956861,-0.3910068,0.3026052,0,0,0,0,0,0,0,0,0,0,0,0,0,0,-0.02869763,-0.5323121,0.4677795,-0.04650879,-0.4847412,-0.3205566,0,0,0,0,0,0
1.999998,-0.7080969,0.9081243,-0.4035335,0.1607572,0,0,0,0,0,0,0,0,0,0,0,0,0,0,0.09145811,-0.2786224,0.07146727,-0.08508301,-0.5557861,-0.3414307,0,0,0,0,0,0
2.009999,-0.7878387,0.8358289,-0.4371396,0,0,0,0,0,0,0,0,0,0,0,0,0,0,0,0.2428986,-0.5360262,-0.2521473,-0.1309814,-0.6621094,-0.3474121,0,0,0,0,0,0
2.019999,-0.8599966,0.763997,-0.5055279,-0.1066079,0,0,0,0,0,0,0,0,0,0,0,0,0,0,0.2398998,-0.5095376,-0.6269857,-0.1639404,-0.6740723,-0.3405762,0,0,0,0,0,0
2.029999,-0.9315377,0.6676687,-0.6066918,-0.2434033,0,0,0,0,0,0,0,0,0,0,0,0,0,0,0.1362098,-0.2399292,-0.5365916,-0.1538086,-0.7333984,-0.317749,0,0,0,0,0,0
2.039999,-1,0.4743927,-0.6796351,-0.4594181,0,0,0,0,0,0,0,0,0,0,0,0,0,0,0.2986252,-0.4345691,-1.471634,-0.1645508,-0.8588867,-0.2189941,0,0,0,0,0,0
2.049999,-1,0.2882255,-0.704649,-0.6423596,0,0,0,0,0,0,0,0,0,0,0,0,0,0,0.298027,-0.3476026,-1.708522,-0.1374512,-0.947876,-0.123291,0,0,0,0,0,0
2.059999,-1,0.07454614,-0.7201656,-0.8395301,0,0,0,0,0,0,0,0,0,0,0,0,0,0,0.1521803,-0.1136979,-1.015535,-0.09887695,-1.073853,0.02880859,0,0,0,0,0,0
2.069999,-1,-0.1217254,-0.6400992,-0.8945485,0,0,0,0,0,0,0,0,0,0,0,0,0,0,0.09045857,-0.02548833,-1.057765,-0.09777832,-1.237915,0.0592041,0,0,0,0,0,0
2.079998,-1,-0.2962267,-0.5602909,-0.9417656,0,0,0,0,0,0,0,0,0,0,0,0,0,0,0.04698087,0.1221982,-2.060141,0.03918457,-1.31543,-0.06677246,0,0,0,0,0,0
2.089998,-0.9952164,-0.4163256,-0.5283443,-0.9573756,0,0,0,0,0,0,0,0,0,0,0,0,0,0,0.0007496973,0.2059144,-1.940439,0.1914063,-1.270508,-0.1895752,0,0,0,0,0,0
2.099998,-0.9395315,-0.5272477,-0.4801027,-0.9721088,0,0,0,0,0,0,0,0,0,0,0,0,0,0,-0.02174181,0.1322002,-0.9044095,0.3375244,-1.308228,-0.1936035,0,0,0,0,0,0
2.109998,-0.7795641,-0.615033,-0.336352,-1,0,0,0,0,0,0,0,0,0,0,0,0,0,0,-0.2248295,0.329918,-1.61956,0.4473877,-1.38501,-0.1622314,0,0,0,0,0,0
2.119998,-0.626467,-0.6187803,-0.1213911,-0.9828763,0,0,0,0,0,0,0,0,0,0,0,0,0,0,-0.5053985,0.442753,-1.58992,0.3599854,-1.318481,-0.03234863,0,0,0,0,0,0
2.129998,-0.4513779,-0.593133,0.1085947,-0.7526736,0,0,0,0,0,0,0,0,0,0,0,0,0,0,-0.4418336,0.3431208,-0.8726714,0.3056641,-1.072144,0.005493164,0,0,0,0,0,0
2.139998,-0.2009306,-0.3919792,0.2570764,-0.3351755,0,0,0,0,0,0,0,0,0,0,0,0,0,0,-0.9655977,0.8883783,-1.800998,0.3974609,-0.7443848,-0.08874512,0,0,0,0,0,0
2.149998,-0.03245672,-0.1202808,0.256364,-0.1042359,0,0,0,0,0,0,0,0,0,0,0,0,0,0,-0.778923,0.9880881,-1.774759,0.5693359,-0.581543,-0.3120117,0,0,0,0,0,0
2.159998,0,0,0.2526869,0.00815119,0,0,0,0,0,0,0,0,0,0,0,0,0,0,-0.1492495,0.4705856,-0.8025331,0.5876465,-0.4262695,-0.5998535,0,0,0,0,0,0
2.169998,0.01522274,0.0058549,0.2586453,0.0695283,0,0,0,0,0,0,0,0,0,0,0,0,0,0,0.1293737,1.005615,-1.60279,0.4527588,-0.8015137,-0.3554688,0,0,0,0,0,0
2.179998,0.1546318,0.08539369,0.2675908,0.1179701,0,0,0,0,0,0,0,0,0,0,0,0,0,0,0.1296957,0.9906941,-1.382721,0.4663086,-1.136475,-0.2429199,0,0,0,0,0,0
2.189998,0.3259635,0.2057051,0.2887994,0.2204813,0,0,0,0,0,0,0,0,0,0,0,0,0,0,-0.06097208,0.4717839,-0.5517473,0.4885254,-1.109985,-0.3083496,0,0,0,0,0,0
2.199998,0.5472869,0.3443196,0.3170535,0.4424812,0,0,0,0,0,0,0,0,0,0,0,0,0,0,-0.1474378,0.7831722,-0.8121592,0.4942627,-1.001709,-0.5030518,0,0,0,0,0,0
2.209998,0.673621,0.3951409,0.3204071,0.7199735,0,0,0,0,0,0,0,0,0,0,0,0,0,0,-0.02099173,0.5635161,-0.4468156,0.6063232,-1.171997,-0.6169434,0,0,0,0,0,0
2.219998,0.7184042,0.4067156,0.3082434,0.9169266,0,0,0,0,0,0,0,0,0,0,0,0,0,0,-0.02873918,0.1739345,-0.0294889,0.6066895,-1.336304,-0.5726318,0,0,0,0,0,0
2.229998,0.7754827,0.4591166,0.2403741,1,0,0,0,0,0,0,0,0,0,0,0,0,0,0,-0.2293827,0.1594239,0.3553152,0.6590576,-1.299561,-0.5616455,0,0,0,0,0,0
2.239998,0.8412259,0.5125609,0.1296006,1,0,0,0,0,0,0,0,0,0,0,0,0,0,0,-0.3528522,-0.002747724,0.7344409,0.6881104,-1.19458,-0.5407715,0,0,0,0,0,0
2.249998,0.8732868,0.5887771,0.05099206,1,0,0,0,0,0,0,0,0,0,0,0,0,0,0,-0.1611762,-0.09370708,0.5732375,0.7067871,-1.039307,-0.5472412,0,0,0,0,0,0
2.259998,0.8875827,0.664692,-0.01960851,1,0,0,0,0,0,0,0,0,0,0,0,0,0,0,-0.1717772,-0.3576221,1.429281,0.760376,-1.061523,-0.3861084,0,0,0,0,0,0
2.269998,0.8894031,0.6899853,-0.02745281,1,0,0,0,0,0,0,0,0,0,0,0,0,0,0,-0.1139526,-0.4940433,1.774758,0.7176514,-1.141235,-0.2332764,0,0,0,0,0,0
2.279998,0.8581596,0.7384164,-0.035298,1,0,0,0,0,0,0,0,0,0,0,0,0,0,0,-0.1671796,-0.5452725,2.137356,0.6297607,-1.281982,-0.06445313,0,0,0,0,0,0
2.289998,0.8031714,0.8111632,-0.035298,1,0,0,0,0,0,0,0,0,0,0,0,0,0,0,-0.1441957,-0.2551539,1.22054,0.543457,-1.324829,0.002685547,0,0,0,0,0,0
2.299998,0.696602,0.8637865,-0.035298,1,0,0,0,0,0,0,0,0,0,0,0,0,0,0,-0.3942739,-0.4582282,2.571732,0.4665527,-1.300293,-0.02978516,0,0,0,0,0,0
2.309998,0.5792275,0.8550501,-0.03400215,0.7971615,0,0,0,0,0,0,0,0,0,0,0,0,0,0,-0.533752,-0.472222,2.608833,0.397583,-1.317017,-0.006835938,0,0,0,0,0,0
2.319998,0.4314818,0.7293189,-0.0322474,0.6127006,0,0,0,0,0,0,0,0,0,0,0,0,0,0,-0.4032273,-0.250287,1.173696,0.3935547,-1.221924,0.003662109,0,0,0,0,0,0
2.329998,0.291134,0.5499198,-0.04784161,0.3923012,0,0,0,0,0,0,0,0,0,0,0,0,0,0,-1.172512,-0.6237401,2.17534,0.3291016,-0.9520264,0.03869629,0,0,0,0,0,0
2.339998,0.2214477,0.4463023,-0.08324619,0.2784441,0,0,0,0,0,0,0,0,0,0,0,0,0,0,-1.329639,-0.6359591,1.768446,0.2210693,-0.8171387,0.02502441,0,0,0,0,0,0
2.349998,0.1558607,0.3594338,-0.154616,0.2277072,0,0,0,0,0,0,0,0,0,0,0,0,0,0,-1.516504,-0.5278966,1.109043,0.0838623,-0.8162842,-0.07568359,0,0,0,0,0,0
2.359998,0.1054682,0.2650956,-0.2756663,0.2323031,0,0,0,0,0,0,0,0,0,0,0,0,0,0,-1.768019,-0.4707222,0.6669387,-0.002319336,-0.8033447,-0.1669922,0,0,0,0,0,0
2.369998,0.06189323,0.1387262,-0.4869241,0.2697349,0,0,0,0,0,0,0,0,0,0,0,0,0,0,-0.9570881,-0.2087647,0.1354087,-0.0447998,-0.7145996,-0.2664795,0,0,0,0,0,0
2.379998,0,0,-0.8620284,0.2976511,0,0,0,0,0,0,0,0,0,0,0,0,0,0,-2.033751,-0.4056737,0.04997955,0.009155273,-0.5002441,-0.4124756,0,0,0,0,0,0
2.389998,0,0,-1,0.3042357,0,0,0,0,0,0,0,0,0,0,0,0,0,0,-2.025403,-0.3948351,-0.04473153,0.137085,-0.333374,-0.5419922,0,0,0,0,0,0
2.399998,0,0,-1,0.2483314,0,0,0,0,0,0,0,0,0,0,0,0,0,0,-0.8313692,-0.1634251,-0.006996796,0.05273438,-0.1577148,-0.5982666,0,0,0,0,0,0
2.409998,0,0,-1,0.02745281,0,0,0,0,0,0,0,0,0,0,0,0,0,0,-1.099818,-0.2155041,0.03854162,-0.01086426,-0.08630371,-0.5770264,0,0,0,0,0,0
2.419998,0,0,-1,-0.1690417,0,0,0,0,0,0,0,0,0,0,0,0,0,0,-0.6919587,-0.1695242,0.11768,-0.05847168,-0.08325195,-0.6203613,0,0,0,0,0,0
2.429998,0,0,-1,-0.3202776,0,0,0,0,0,0,0,0,0,0,0,0,0,0,-0.3347403,-0.1992425,0.2007997,-0.04528809,-0.06140137,-0.7304688,0,0,0,0,0,0
2.439998,0,0,-1,-0.4253754,0,0,0,0,0,0,0,0,0,0,0,0,0,0,0.02006909,-0.12226,0.1448666,-0.08886719,-0.0456543,-0.7496338,0,0,0,0,0,0
2.449998,0.003367693,0.002143077,-0.9736622,-0.5047147,0,0,0,0,0,0,0,0,0,0,0,0,0,0,0.176919,-0.1651744,0.1821666,-0.03271484,-0.0008544922,-0.7635498,0,0,0,0,0,0
2.459998,0.1244671,0.09826346,-0.9268799,-0.6006819,0,0,0,0,0,0,0,0,0,0,0,0,0,0,0.7976347,-0.4068137,0.3840741,0.0002441406,0.02844238,-0.7005615,0,0,0,0,0,0
2.469998,0.2628945,0.2443373,-0.8788145,-0.6640815,0,0,0,0,0,0,0,0,0,0,0,0,0,0,0.6257644,-0.1941769,0.1664373,-0.03601074,0.05700684,-0.6141357,0,0,0,0,0,0
2.479998,0.5143447,0.5744142,-0.8240681,-0.7444481,0,0,0,0,0,0,0,0,0,0,0,0,0,0,1.619541,-0.3634107,0.2241545,-0.07202148,-0.152832,-0.4985352,0,0,0,0,0,0
2.489998,0.7481521,0.8761782,-0.7755088,-0.7834626,0,0,0,0,0,0,0,0,0,0,0,0,0,0,1.883966,-0.3498127,0.1690244,-0.1499023,-0.2626953,-0.4645996,0,0,0,0,0,0
2.499998,0.7572768,0.885493,-0.7346511,-0.8061307,0,0,0,0,0,0,0,0,0,0,0,0,0,0,2.34277,-0.3548515,0.1147029,-0.270874,-0.4072266,-0.5480957,0,0,0,0,0,0
2.509998,0.7572768,0.885493,-0.631119,-0.7722387,0,0,0,0,0,0,0,0,0,0,0,0,0,0,1.285766,-0.2209168,0.007747083,-0.2504883,-0.6959229,-0.2966309,0,0,0,0,0,0
2.519998,0.7658077,0.8860916,-0.2521707,-0.350419,0,0,0,0,0,0,0,0,0,0,0,0,0,0,2.488112,-0.4992713,-0.004497126,-0.2827148,-0.911499,-0.02416992,0,0,0,0,0,0
2.529998,0.765208,0.877385,0,0,0,0,0,0,0,0,0,0,0,0,0,0,0,0,2.341772,-0.4937938,-0.1119544,-0.3197021,-1.043091,0.02429199,0,0,0,0,0,0
2.539998,0.765208,0.877385,0,0,0,0,0,0,0,0,0,0,0,0,0,0,0,0,1.053018,-0.2463872,-0.1504311,-0.2010498,-1.300537,0.0447998,0,0,0,0,0,0
2.549998,0.765208,0.877385,0,0,0,0,0,0,0,0,0,0,0,0,0,0,0,0,1.499926,-0.4188973,-0.3939452,-0.166626,-1.538452,-0.04846191,0,0,0,0,0,0
2.559998,0.765208,0.877385,0.004560402,0.005654898,0,0,0,0,0,0,0,0,0,0,0,0,0,0,1.073055,-0.3843399,-0.574009,-0.1745605,-1.328735,-0.09301758,0,0,0,0,0,0
2.569998,0.765208,0.877385,0.0536726,0.07969568,0,0,0,0,0,0,0,0,0,0,0,0,0,0,0.3466195,-0.1634385,-0.430088,-0.177002,-1.05188,-0.05224609,0,0,0,0,0,0
2.579998,0.765208,0.877385,0.1435808,0.3146559,0,0,0,0,0,0,0,0,0,0,0,0,0,0,0.5775089,-0.2334034,-1.14552,-0.1812744,-0.7368164,-0.03503418,0,0,0,0,0,0
2.589998,0.7566752,0.8767824,0.2277101,0.5963836,0,0,0,0,0,0,0,0,0,0,0,0,0,0,0.6726898,-0.09196029,-1.331888,-0.1876221,-0.6748047,0.02758789,0,0,0,0,0,0
2.599998,0.7487553,0.8848926,0.2994431,0.8983292,0,0,0,0,0,0,0,0,0,0,0,0,0,0,0.4578276,0.05847798,-0.698487,-0.1168213,-0.7578125,0.06433105,0,0,0,0,0,0
2.609998,0.7153703,0.8912154,0.336352,1,0,0,0,0,0,0,0,0,0,0,0,0,0,0,1.167399,0.2681856,-1.235046,0.05029297,-0.9399414,0.01843262,0,0,0,0,0,0
2.619998,0.6996371,0.9075292,0.336352,1,0,0,0,0,0,0,0,0,0,0,0,0,0,0,1.399166,0.4015816,-1.140025,0.08508301,-1.08374,0.1254883,0,0,0,0,0,0
2.629998,0.6682492,0.9403506,0.3444016,1,0,0,0,0,0,0,0,0,0,0,0,0,0,0,1.348938,0.5752591,-1.021074,0.06445313,-1.23999,0.2202148,0,0,0,0,0,0
2.639998,0.6118565,0.9717721,0.3444016,1,0,0,0,0,0,0,0,0,0,0,0,0,0,0,1.699515,1.052898,-1.349562,0.1610107,-1.330933,0.2227783,0,0,0,0,0,0
2.649998,0.5718616,0.995759,0.3444016,1,0,0,0,0,0,0,0,0,0,0,0,0,0,0,0.9361101,0.8418986,-0.6422331,0.1971436,-1.403564,0.1789551,0,0,0,0,0,0
2.659998,0.5552751,0.9947014,0.3524597,1,0,0,0,0,0,0,0,0,0,0,0,0,0,0,0.4256244,0.4173768,-0.2221844,0.1680908,-1.433105,0.1422119,0,0,0,0,0,0
2.669998,0.547518,1,0.3605264,1,0,0,0,0,0,0,0,0,0,0,0,0,0,0,0.6677229,0.7931694,-0.3178679,0.1333008,-1.509644,0.08789063,0,0,0,0,0,0
2.679998,0.547518,1,0.3847782,1,0,0,0,0,0,0,0,0,0,0,0,0,0,0,0.4316993,0.6926469,-0.2373602,0.1671143,-1.464478,0.08654785,0,0,0,0,0,0
2.689998,0.547518,1,0.4091095,1,0,0,0,0,0,0,0,0,0,0,0,0,0,0,0.1054431,0.3045857,-0.1311792,0.1901855,-1.459717,0.08679199,0,0,0,0,0,0
2.699998,0.547518,1,0.4416777,1,0,0,0,0,0,0,0,0,0,0,0,0,0,0,-0.02748965,0.2479067,-0.1744343,0.182251,-1.506226,0.1091309,0,0,0,0,0,0
2.709998,0.5723898,1,0.4519188,0.9077673,0,0,0,0,0,0,0,0,0,0,0,0,0,0,-0.3920843,0.3848401,-0.4792992,0.1508789,-1.54834,0.0925293,0,0,0,0,0,0
2.719998,0.6051498,0.9978961,0.3447531,0.6339008,0,0,0,0,0,0,0,0,0,0,0,0,0,0,-0.6567275,0.3068716,-0.5665141,0.1099854,-1.481445,0.1080322,0,0,0,0,0,0
2.729998,0.6374958,0.9823048,0.1429074,0.2325748,0,0,0,0,0,0,0,0,0,0,0,0,0,0,-0.8369018,0.2683878,-0.6304873,0.08312988,-1.420898,0.1208496,0,0,0,0,0,0
2.739998,0.6856716,0.9503168,0,0,0,0,0,0,0,0,0,0,0,0,0,0,0,0,-1.023391,0.2509508,-0.6227543,0.07141113,-1.401611,0.1762695,0,0,0,0,0,0
2.749998,0.7098602,0.9344487,0,0,0,0,0,0,0,0,0,0,0,0,0,0,0,0,-1.070167,0.2320265,-0.6134188,0.07104492,-1.29834,0.01647949,0,0,0,0,0,0
2.759998,0.7341238,0.9186576,0,0,0,0,0,0,0,0,0,0,0,0,0,0,0,0,-0.5375476,0.09896274,-0.3118826,0.1535645,-1.225098,0.07531738,0,0,0,0,0,0
2.769998,0.765208,0.877385,0,0,0,0,0,0,0,0,0,0,0,0,0,0,0,0,-1.154065,0.1804321,-0.6522544,0.175293,-1.162842,-0.00390625,0,0,0,0,0,0
2.779998,0.8210066,0.8210066,0,0,0,0,0,0,0,0,0,0,0,0,0,0,0,0,-1.300263,0.1566907,-0.6979879,0.1634521,-1.088623,-0.01794434,0,0,0,0,0,0
2.789998,0.8612111,0.7810984,-0.00733856,-0.05136992,0,0,0,0,0,0,0,0,0,0,0,0,0,0,-0.7254768,0.06647497,-0.3801069,0.1798096,-0.9417725,-0.03540039,0,0,0,0,0,0
2.799998,0.892418,0.7323431,-0.01078504,-0.08782104,0,0,0,0,0,0,0,0,0,0,0,0,0,0,-1.396714,0.1004575,-0.7967568,0.1964111,-0.7215576,-0.09094238,0,0,0,0,0,0
2.809998,0.9244941,0.6923701,-0.0115039,-0.09696148,0,0,0,0,0,0,0,0,0,0,0,0,0,0,-1.342891,0.06977813,-0.8708599,0.1998291,-0.571167,-0.1148682,0,0,0,0,0,0
2.819998,0.9391946,0.6514414,-0.0115039,-0.09696148,0,0,0,0,0,0,0,0,0,0,0,0,0,0,-0.6142187,0.02298947,-0.4952732,0.2166748,-0.3928223,-0.1365967,0,0,0,0,0,0
2.829998,0.9701149,0.5868597,0,0,0,0,0,0,0,0,0,0,0,0,0,0,0,0,-0.9761324,0.0549793,-1.051354,0.1828613,-0.3242188,-0.1187744,0,0,0,0,0,0
2.839998,0.9926133,0.5222183,0,0,0,0,0,0,0,0,0,0,0,0,0,0,0,0,-0.7087018,0.03923336,-1.061057,0.2416992,-0.251709,-0.2480469,0,0,0,0,0,0
2.849998,1,0.4416777,0,0,0,0,0,0,0,0,0,0,0,0,0,0,0,0,-0.12226,0.00599766,-0.45167,0.2928467,-0.3529053,-0.239502,0,0,0,0,0,0
2.859998,1,0.3122526,-0.01036987,0.02128552,0,0,0,0,0,0,0,0,0,0,0,0,0,0,0.01883745,0.03990588,-0.7405131,0.2746582,-0.7078857,-0.1567383,0,0,0,0,0,0
2.869998,1,0.2562958,-0.05801625,0.2569291,0,0,0,0,0,0,0,0,0,0,0,0,0,0,0.05828535,0.0671666,-0.5055945,0.3188477,-0.84021,-0.133667,0,0,0,0,0,0
2.879998,1,0.2244794,-0.01078111,0.6217105,0,0,0,0,0,0,0,0,0,0,0,0,0,0,0.02614297,0.07062382,-0.2641198,0.3840332,-0.8669434,-0.1662598,0,0,0,0,0,0
2.889998,1,0.2165419,0.08975133,0.9638513,0,0,0,0,0,0,0,0,0,0,0,0,0,0,0.003498683,0.02723974,0.01549417,0.4510498,-0.8924561,-0.2359619,0,0,0,0,0,0
2.899998,1,0.2165419,0.1611441,1,0,0,0,0,0,0,0,0,0,0,0,0,0,0,0.07771805,0.02199062,0.3935882,0.5643311,-0.9519043,-0.2584229,0,0,0,0,0,0
2.909998,1,0.2165419,0.2086106,1,0,0,0,0,0,0,0,0,0,0,0,0,0,0,0.1363839,-0.008188543,0.7014493,0.5610352,-0.9686279,-0.2409668,0,0,0,0,0,0
2.919998,1,0.2324234,0.2642672,1,0,0,0,0,0,0,0,0,0,0,0,0,0,0,0.09435613,-0.03345144,0.4805472,0.5351563,-0.9311523,-0.2476807,0,0,0,0,0,0
2.929998,1,0.3042357,0.3283107,1,0,0,0,0,0,0,0,0,0,0,0,0,0,0,0.114427,-0.07520806,0.588284,0.5231934,-0.907959,-0.2268066,0,0,0,0,0,0
2.939998,1,0.4580168,0.3928797,1,0,0,0,0,0,0,0,0,0,0,0,0,0,0,0.2932407,-0.2642153,1.451538,0.4682617,-0.972168,-0.2104492,0,0,0,0,0,0
2.949998,0.9617803,0.5946276,0.4416777,1,0,0,0,0,0,0,0,0,0,0,0,0,0,0,0.2812074,-0.3475248,1.608892,0.4205322,-1.029419,-0.2254639,0,0,0,0,0,0
2.959998,0.8993645,0.7075,0.4908059,1,0,0,0,0,0,0,0,0,0,0,0,0,0,0,0.126692,-0.237891,0.9010873,0.3543701,-1.073364,-0.2141113,0,0,0,0,0,0
2.969998,0.8271842,0.7872236,0.547518,1,0,0,0,0,0,0,0,0,0,0,0,0,0,0,0.188843,-0.5784262,1.812344,0.3115234,-1.059814,-0.2126465,0,0,0,0,0,0
2.979998,0.7878387,0.8358289,0.5879496,0.9879154,0,0,0,0,0,0,0,0,0,0,0,0,0,0,0.04544381,-0.3291793,0.8980343,0.2523193,-1.066284,-0.1696777,0,0,0,0,0,0
2.989998,0.7481521,0.8761782,0.6196507,0.9634567,0,0,0,0,0,0,0,0,0,0,0,0,0,0,0.0001926739,-0.762406,1.862689,0.1870117,-0.9761963,-0.144165,0,0,0,0,0,0
2.999998,0.6996371,0.9075292,0.6196507,0.9634567,0,0,0,0,0,0,0,0,0,0,0,0,0,0,-0.03248777,-0.4393346,0.9308995,0.1380615,-0.9371338,-0.1069336,0,0,0,0,0,0
3.009998,0.6604159,0.9485974,0.6196507,0.9634567,0,0,0,0,0,0,0,0,0,0,0,0,0,0,-0.1102045,-0.9368593,1.749519,-0.005249023,-1.088867,-0.01623535,0,0,0,0,0,0
3.019998,0.6035143,0.9712184,0.6112997,0.9628969,0,0,0,0,0,0,0,0,0,0,0,0,0,0,-0.1391976,-0.4510802,0.8124441,-0.1149902,-1.266602,-0.003540039,0,0,0,0,0,0
3.029998,0.4662001,1,0.5304679,0.9931315,0,0,0,0,0,0,0,0,0,0,0,0,0,0,-0.4924819,-0.8553861,1.446731,-0.1047363,-1.281982,-0.02062988,0,0,0,0,0,0
3.039998,0.3042357,1,0.4662001,1,0,0,0,0,0,0,0,0,0,0,0,0,0,0,-0.3371231,-0.4255898,0.6892405,-0.07421875,-1.276978,-0.02478027,0,0,0,0,0,0
3.049998,0.09026043,1,0.3766855,1,0,0,0,0,0,0,0,0,0,0,0,0,0,0,-0.7728953,-0.8028829,1.242433,-0.07116699,-1.200073,-0.005004883,0,0,0,0,0,0
3.059998,-0.06669273,1,0.2882255,1,0,0,0,0,0,0,0,0,0,0,0,0,0,0,-0.4051305,-0.379638,0.5413402,-0.09057617,-1.134033,-0.03710938,0,0,0,0,0,0
3.069998,-0.2642672,1,0.1453634,1,0,0,0,0,0,0,0,0,0,0,0,0,0,0,-0.8022549,-0.6807871,0.8430635,-0.1496582,-1.04895,-0.08911133,0,0,0,0,0,0
3.079998,-0.4009901,1,0.035298,1,0,0,0,0,0,0,0,0,0,0,0,0,0,0,-0.822157,-0.6487297,0.7104545,-0.1870117,-0.9842529,-0.1688232,0,0,0,0,0,0
3.089998,-0.5232409,1,-0.09026043,1,0,0,0,0,0,0,0,0,0,0,0,0,0,0,-0.3938196,-0.2851194,0.2891176,-0.1986084,-0.873291,-0.2336426,0,0,0,0,0,0
3.099998,-0.6274477,0.9551592,-0.2562958,1,0,0,0,0,0,0,0,0,0,0,0,0,0,0,-0.7326946,-0.4840486,0.4808,-0.2266846,-0.7211914,-0.2927246,0,0,0,0,0,0
3.109998,-0.691781,0.91571,-0.3766855,1,0,0,0,0,0,0,0,0,0,0,0,0,0,0,-0.6744681,-0.4103283,0.3910861,-0.2049561,-0.6413574,-0.3128662,0,0,0,0,0,0
3.119998,-0.7475448,0.8674718,-0.4739094,1,0,0,0,0,0,0,0,0,0,0,0,0,0,0,-0.2881415,-0.1669371,0.1451953,-0.1813965,-0.5682373,-0.3168945,0,0,0,0,0,0
3.129997,-0.8111632,0.8031714,-0.6012593,0.9357346,0,0,0,0,0,0,0,0,0,0,0,0,0,0,-0.4600573,-0.2661385,0.163181,-0.1712646,-0.5192871,-0.3411865,0,0,0,0,0,0
3.139997,-0.8513149,0.7633857,-0.6972183,0.8725189,0,0,0,0,0,0,0,0,0,0,0,0,0,0,-0.1851652,-0.09995423,-0.006996796,-0.1800537,-0.5114746,-0.3979492,0,0,0,0,0,0
3.149997,-0.8987648,0.6990393,-0.8725189,0.6972183,0,0,0,0,0,0,0,0,0,0,0,0,0,0,-0.381841,-0.1444394,-0.2698891,-0.1645508,-0.5114746,-0.3811035,0,0,0,0,0,0
3.159997,-0.9386168,0.6430523,-0.9752428,0.5294175,0,0,0,0,0,0,0,0,0,0,0,0,0,0,-0.4425473,-0.09095834,-0.5270087,-0.1862793,-0.5093994,-0.3598633,0,0,0,0,0,0
3.169997,-0.9852398,0.5464691,-1,0.3122526,0,0,0,0,0,0,0,0,0,0,0,0,0,0,-0.3879285,-0.003325724,-0.8354682,-0.2678223,-0.4702148,-0.3000488,0,0,0,0,0,0
3.179997,-1,0.433522,-1,0.1611441,0,0,0,0,0,0,0,0,0,0,0,0,0,0,-0.196899,0.06570234,-1.03058,-0.3066406,-0.5515137,-0.2763672,0,0,0,0,0,0
3.189997,-1,0.2802319,-1,0.02745281,0,0,0,0,0,0,0,0,0,0,0,0,0,0,0.06672488,0.06122695,-0.5705352,-0.2819824,-0.8162842,-0.2633057,0,0,0,0,0,0
3.199997,-1,-0.035298,-1,-0.1217254,0,0,0,0,0,0,0,0,0,0,0,0,0,0,0.392337,0.1067052,-0.9143664,-0.2241211,-1.39917,-0.3200684,0,0,0,0,0,0
3.209997,-1,-0.3042357,-1,-0.1848525,0,0,0,0,0,0,0,0,0,0,0,0,0,0,0.347606,0.03473627,-0.5392781,-0.2069092,-1.80896,-0.3718262,0,0,0,0,0,0
3.219997,-0.9568346,-0.5201051,-1,-0.2483314,0,0,0,0,0,0,0,0,0,0,0,0,0,0,0.1774187,-0.1064512,-0.05622425,-0.2424316,-2.067627,-0.4122314,0,0,0,0,0,0
3.229997,-0.7901513,-0.7504452,-1,-0.3122526,0,0,0,0,0,0,0,0,0,0,0,0,0,0,-0.1095732,-0.3104963,0.50719,-0.31604,-2.009277,-0.3865967,0,0,0,0,0,0
3.239997,-0.6233535,-0.893341,-1,-0.3605264,0,0,0,0,0,0,0,0,0,0,0,0,0,0,-0.2602538,-0.3838362,0.7495644,-0.3162842,-1.805786,-0.4613037,0,0,0,0,0,0
3.249997,-0.4167845,-1,-1,-0.4091095,0,0,0,0,0,0,0,0,0,0,0,0,0,0,-0.1979255,-0.2314129,0.4295883,-0.3452148,-1.546021,-0.4526367,0,0,0,0,0,0
3.259997,-0.2324234,-1,-0.9431154,-0.4459081,0,0,0,0,0,0,0,0,0,0,0,0,0,0,-0.6177437,-0.4728026,0.7561836,-0.3851318,-1.281982,-0.4688721,0,0,0,0,0,0
3.269997,-0.1848525,-1,-0.7047364,-0.3504839,0,0,0,0,0,0,0,0,0,0,0,0,0,0,-0.8388985,-0.4365682,0.6334866,-0.430542,-1.060669,-0.5223389,0,0,0,0,0,0
3.279997,-0.1374799,-1,-0.3091218,-0.1110438,0,0,0,0,0,0,0,0,0,0,0,0,0,0,-1.010537,-0.3808256,0.5010206,-0.5252686,-0.8083496,-0.5244141,0,0,0,0,0,0
3.289997,-0.07454614,-1,0,0,0,0,0,0,0,0,0,0,0,0,0,0,0,0,-0.552292,-0.1541919,0.1586902,-0.5723877,-0.5047607,-0.680542,0,0,0,0,0,0
3.299997,0.01960851,-1,0,0,0,0,0,0,0,0,0,0,0,0,0,0,0,0,-1.093246,-0.2367458,0.0799482,-0.4733887,-0.3604736,-0.6239014,0,0,0,0,0,0
3.309997,0.07454614,-1,0.03377411,0.05629018,0,0,0,0,0,0,0,0,0,0,0,0,0,0,-1.193003,-0.1836729,-0.1004592,-0.3968506,-0.3187256,-0.6025391,0,0,0,0,0,0
3.319997,0.1532514,-1,0.2278321,0.2902519,0,0,0,0,0,0,0,0,0,0,0,0,0,0,-1.18415,-0.09480631,-0.2184643,-0.3571777,-0.293335,-0.5704346,0,0,0,0,0,0
3.329997,0.2483314,-1,0.5484164,0.5862381,0,0,0,0,0,0,0,0,0,0,0,0,0,0,-0.5912293,-0.007746452,-0.1651744,-0.3149414,-0.2115479,-0.5804443,0,0,0,0,0,0
3.339997,0.3605264,-1,0.8259454,0.7700843,0,0,0,0,0,0,0,0,0,0,0,0,0,0,-1.029029,0.01099496,-0.5322562,-0.2971191,-0.03662109,-0.5578613,0,0,0,0,0,0
3.349997,0.4498426,-1,0.8587738,0.7469335,0,0,0,0,0,0,0,0,0,0,0,0,0,0,-0.9381081,0.05422791,-0.6942112,-0.2509766,-0.0390625,-0.4547119,0,0,0,0,0,0
3.359997,0.5651261,-1,0.8737444,0.7141563,0,0,0,0,0,0,0,0,0,0,0,0,0,0,-0.8324014,0.150188,-0.8056645,-0.2906494,0.08361816,-0.5109863,0,0,0,0,0,0
3.369997,0.6850963,-0.9415066,0.8975631,0.682148,0,0,0,0,0,0,0,0,0,0,0,0,0,0,-0.2371414,0.1209446,-0.4582901,-0.2521973,0.1655273,-0.510376,0,0,0,0,0,0
3.379997,0.8599966,-0.763997,0.9445959,0.6018312,0,0,0,0,0,0,0,0,0,0,0,0,0,0,-0.01111285,0.3405468,-0.9602643,-0.2635498,0.07446289,-0.4265137,0,0,0,0,0,0
3.389997,0.9763092,-0.5459362,0.9826212,0.5052344,0,0,0,0,0,0,0,0,0,0,0,0,0,0,0.3461585,0.4726635,-0.9963453,-0.2947998,-0.1043701,-0.364624,0,0,0,0,0,0
3.399997,1,-0.3686016,1,0.4091095,0,0,0,0,0,0,0,0,0,0,0,0,0,0,0.5614702,0.5659312,-0.9956151,-0.3381348,-0.269165,-0.3366699,0,0,0,0,0,0
3.409997,1,-0.01176485,1,0.1059862,0,0,0,0,0,0,0,0,0,0,0,0,0,0,0.9300259,0.7478542,-0.9270483,-0.3599854,-0.5457764,-0.3106689,0,0,0,0,0,0
3.419997,1,0.2722459,1,-0.3444016,0,0,0,0,0,0,0,0,0,0,0,0,0,0,1.198501,0.8993751,-0.8851303,-0.3170166,-0.7906494,-0.2495117,0,0,0,0,0,0
3.429997,1,0.3928797,0.8712887,-0.6803213,0,0,0,0,0,0,0,0,0,0,0,0,0,0,1.264972,0.9313613,-0.8249062,-0.3382568,-0.9732666,-0.1584473,0,0,0,0,0,0
3.439997,1,0.4825947,0.6972183,-0.8725189,0,0,0,0,0,0,0,0,0,0,0,0,0,0,0.5418655,0.4276793,-0.3469416,-0.2462158,-1.169312,-0.1801758,0,0,0,0,0,0
3.449997,1,0.540269,0.5216986,-0.9836607,0,0,0,0,0,0,0,0,0,0,0,0,0,0,0.5074943,0.4027659,-0.311417,-0.1665039,-1.272583,-0.2735596,0,0,0,0,0,0
3.459997,0.9962907,0.5801693,0.336352,-1,0,0,0,0,0,0,0,0,0,0,0,0,0,0,1.005802,0.7849927,-0.5059183,-0.05566406,-1.456299,-0.2845459,0,0,0,0,0,0
3.469997,0.9723267,0.6202084,0.2403741,-1,0,0,0,0,0,0,0,0,0,0,0,0,0,0,0.9425418,0.7616184,-0.4324893,0.02453613,-1.507935,-0.3320313,0,0,0,0,0,0
3.479997,0.9327032,0.6845161,0.1769445,-1,0,0,0,0,0,0,0,0,0,0,0,0,0,0,0.4275542,0.390821,-0.2119029,-0.001464844,-1.483765,-0.3955078,0,0,0,0,0,0
3.489997,0.8686867,0.7646044,0.1296006,-1,0,0,0,0,0,0,0,0,0,0,0,0,0,0,0.6683019,0.7394283,-0.4336416,-0.03137207,-1.36438,-0.4997559,0,0,0,0,0,0
3.499997,0.8117793,0.8117793,0.08240198,-1,0,0,0,0,0,0,0,0,0,0,0,0,0,0,0.4905018,0.7340531,-0.4933482,-0.06420898,-1.253418,-0.5308838,0,0,0,0,0,0
3.509997,0.7487553,0.8848926,0,-1,0,0,0,0,0,0,0,0,0,0,0,0,0,0,0.1333326,0.3591676,-0.2853502,-0.04858398,-1.126587,-0.5601807,0,0,0,0,0,0
3.519997,0.6280115,0.9640176,-0.119144,-0.8724418,0,0,0,0,0,0,0,0,0,0,0,0,0,0,0.09932202,0.7929707,-0.7243276,-0.05493164,-0.9953613,-0.5734863,0,0,0,0,0,0
3.529997,0.5552751,0.9947014,-0.1695707,-0.5017908,0,0,0,0,0,0,0,0,0,0,0,0,0,0,0.01245623,0.8325716,-0.8551174,-0.06433105,-0.8895264,-0.6328125,0,0,0,0,0,0
3.539997,0.5392466,1,-0.1232427,-0.04108091,0,0,0,0,0,0,0,0,0,0,0,0,0,0,-0.03848393,0.9131192,-1.075552,-0.04077148,-0.7613525,-0.6800537,0,0,0,0,0,0
3.549997,0.5392466,1,-0.2417406,0.07333703,0,0,0,0,0,0,0,0,0,0,0,0,0,0,0.004939766,0.9119962,-1.178421,0.02819824,-0.6833496,-0.6474609,0,0,0,0,0,0
3.559997,0.5392466,1,-0.4859864,0.2622229,0,0,0,0,0,0,0,0,0,0,0,0,0,0,0.004228645,0.9754122,-1.301062,0.1419678,-0.7661133,-0.5177002,0,0,0,0,0,0
3.569997,0.5392466,1,-0.7936319,0.574699,0,0,0,0,0,0,0,0,0,0,0,0,0,0,-0.1303479,1.024603,-1.312,0.3278809,-0.9782715,-0.4716797,0,0,0,0,0,0
3.579997,0.5392466,1,-0.8782014,0.6556707,0,0,0,0,0,0,0,0,0,0,0,0,0,0,-0.1596618,1.018451,-1.193933,0.4691162,-1.008057,-0.5510254,0,0,0,0,0,0
3.589997,0.5376719,0.9757748,-0.8788145,0.6640815,0,0,0,0,0,0,0,0,0,0,0,0,0,0,-0.0279483,1.06479,-0.948133,0.3846436,-1.11377,-0.4274902,0,0,0,0,0,0
3.599997,0.5272477,0.9395315,-0.8788145,0.6640815,0,0,0,0,0,0,0,0,0,0,0,0,0,0,0.02923661,0.5787349,-0.3413436,0.4632568,-1.132324,-0.3433838,0,0,0,0,0,0
3.609997,0.5178976,0.9211461,-0.7643435,0.7485022,0,0,0,0,0,0,0,0,0,0,0,0,0,0,-0.05441808,1.038386,-0.3853186,0.5111084,-1.192261,-0.3447266,0,0,0,0,0,0
3.619997,0.5508814,0.9234198,-0.392115,0.7347397,0,0,0,0,0,0,0,0,0,0,0,0,0,0,-0.08027638,0.4625119,-0.06689698,0.5108643,-1.182373,-0.3922119,0,0,0,0,0,0
3.629997,0.6598403,0.9397725,0.122507,0.7164806,0,0,0,0,0,0,0,0,0,0,0,0,0,0,-0.2609876,0.8752409,0.0778956,0.4368896,-1.021484,-0.3128662,0,0,0,0,0,0
3.639997,0.6676687,0.9315377,0.3734843,0.6979252,0,0,0,0,0,0,0,0,0,0,0,0,0,0,-0.3096955,0.760483,0.1814619,0.4929199,-0.9064941,-0.3085938,0,0,0,0,0,0
3.649997,0.6760875,0.9321206,0.612641,0.6511719,0,0,0,0,0,0,0,0,0,0,0,0,0,0,-0.172421,0.2963643,0.1279414,0.4794922,-0.8126221,-0.2677002,0,0,0,0,0,0
3.659997,0.6845161,0.9327032,0.8675779,0.6298854,0,0,0,0,0,0,0,0,0,0,0,0,0,0,-0.1794178,0.2064055,0.1234435,0.4260254,-0.7368164,-0.2271729,0,0,0,0,0,0
3.669997,0.7238518,0.8918174,0.9985589,0.4734204,0,0,0,0,0,0,0,0,0,0,0,0,0,0,-0.3350639,0.1963673,0.1503655,0.3682861,-0.6832275,-0.1856689,0,0,0,0,0,0
3.679997,0.7798811,0.8438712,1,0.3928797,0,0,0,0,0,0,0,0,0,0,0,0,0,0,-0.3743571,0.05488123,0.09221385,0.3037109,-0.6387939,-0.1557617,0,0,0,0,0,0
3.689997,0.8575435,0.7299091,1,0.3686016,0,0,0,0,0,0,0,0,0,0,0,0,0,0,-0.5731533,-0.06599164,0.05184196,0.2441406,-0.5489502,-0.1999512,0,0,0,0,0,0
3.699997,0.956296,0.5118763,1,0.3686016,0,0,0,0,0,0,0,0,0,0,0,0,0,0,-0.1212044,-0.1082093,-0.03723598,0.2277832,-0.4769287,-0.197998,0,0,0,0,0,0
3.709997,0.9966533,0.2639359,0.9905694,0.4893174,0,0,0,0,0,0,0,0,0,0,0,0,0,0,-0.1049501,-0.2903677,-0.09270756,0.2490234,-0.4445801,-0.1651611,0,0,0,0,0,0
3.719997,1,0.05884144,0.9127472,0.6496847,0,0,0,0,0,0,0,0,0,0,0,0,0,0,0.01849304,-0.3371096,-0.07621796,0.2908936,-0.4594727,-0.1660156,0,0,0,0,0,0
3.729997,1,-0.1848525,0.7859832,0.8099219,0,0,0,0,0,0,0,0,0,0,0,0,0,0,0.07131132,-0.1719318,-0.003461715,0.3699951,-0.5089111,-0.1751709,0,0,0,0,0,0
3.739997,1,-0.3924417,0.6424721,0.9297888,0,0,0,0,0,0,0,0,0,0,0,0,0,0,0.1054204,-0.1868502,0.04475177,0.4454346,-0.6409912,-0.1184082,0,0,0,0,0,0
3.749997,0.8788145,-0.6640815,0.4172379,1,0,0,0,0,0,0,0,0,0,0,0,0,0,0,0.2728646,-0.4148811,0.2492585,0.583252,-0.8421631,-0.1206055,0,0,0,0,0,0
3.759997,0.7141563,-0.8737444,0.2244794,1,0,0,0,0,0,0,0,0,0,0,0,0,0,0,0.2448982,-0.445814,0.5052878,0.6363525,-0.9998779,-0.1387939,0,0,0,0,0,0
3.769997,0.5951821,-0.9706661,0.09812176,1,0,0,0,0,0,0,0,0,0,0,0,0,0,0,0.1919195,-0.4075795,0.6682222,0.635376,-1.045288,-0.08703613,0,0,0,0,0,0
3.779997,0.4662001,-1,-0.04314433,1,0,0,0,0,0,0,0,0,0,0,0,0,0,0,0.1228901,-0.3144434,0.7588116,0.602417,-0.9974365,-0.1137695,0,0,0,0,0,0
3.789997,0.4009901,-1,-0.1296006,1,0,0,0,0,0,0,0,0,0,0,0,0,0,0,0.1344809,-0.2666752,0.7710373,0.5664063,-0.9125977,-0.1616211,0,0,0,0,0,0
3.799997,0.2962267,-1,-0.2823333,0.8702054,0,0,0,0,0,0,0,0,0,0,0,0,0,0,0.2608917,-0.2261554,0.7771755,0.5523682,-0.880127,-0.1832275,0,0,0,0,0,0
3.809997,0.1848525,-1,-0.4168131,0.6496277,0,0,0,0,0,0,0,0,0,0,0,0,0,0,0.1516929,-0.1007121,0.3653624,0.5189209,-0.8908691,-0.1723633,0,0,0,0,0,0
3.819997,-0.08090892,-0.8899981,-0.5193985,0.3959051,0,0,0,0,0,0,0,0,0,0,0,0,0,0,0.222059,-0.1890734,0.63002,0.477417,-0.8994141,-0.1500244,0,0,0,0,0,0
3.829997,-0.3407973,-0.5899825,-0.5281193,0.2516542,0,0,0,0,0,0,0,0,0,0,0,0,0,0,0.1524366,-0.1814245,0.5755103,0.4017334,-0.8565674,-0.2139893,0,0,0,0,0,0
3.839997,-0.5646506,-0.3460762,-0.5161589,0.1281737,0,0,0,0,0,0,0,0,0,0,0,0,0,0,0.1012037,-0.07571533,0.2371414,0.3492432,-0.7813721,-0.2796631,0,0,0,0,0,0
3.849997,-0.7813,-0.1396527,-0.4925407,-0.0101905,0,0,0,0,0,0,0,0,0,0,0,0,0,0,0.2993374,-0.1101911,0.3280749,0.2220459,-0.760376,-0.3249512,0,0,0,0,0,0
3.859997,-0.8619825,-0.0574655,-0.4389132,-0.06270189,0,0,0,0,0,0,0,0,0,0,0,0,0,0,0.1979094,-0.03498398,0.0779643,0.1490479,-0.7791748,-0.3822021,0,0,0,0,0,0
3.869997,-0.8708206,-0.003836215,-0.3511552,-0.09633461,0,0,0,0,0,0,0,0,0,0,0,0,0,0,0.4657241,-0.008765954,-0.01218612,0.05187988,-0.8162842,-0.4737549,0,0,0,0,0,0
3.879997,-0.8711076,0.04988722,-0.2527946,-0.08611684,0,0,0,0,0,0,0,0,0,0,0,0,0,0,0.5609157,0.06243542,-0.1384033,0.03601074,-0.8763428,-0.5725098,0,0,0,0,0,0
3.889997,-0.8078416,0.1099878,-0.08491576,-0.0400546,0,0,0,0,0,0,0,0,0,0,0,0,0,0,0.3563368,0.09520639,-0.1414352,0.04785156,-0.9785156,-0.6027832,0,0,0,0,0,0
3.899997,-0.60602,0.235876,0,0,0,0,0,0,0,0,0,0,0,0,0,0,0,0,0.7731777,0.3368602,-0.45831,0.03405762,-1.000122,-0.5926514,0,0,0,0,0,0
3.909997,-0.3910068,0.3026052,0,0,0,0,0,0,0,0,0,0,0,0,0,0,0,0,0.3852921,0.2288765,-0.3153299,0.1325684,-1.063477,-0.5119629,0,0,0,0,0,0
3.919997,-0.1165658,0.44295,0.03118804,0.03307822,0,0,0,0,0,0,0,0,0,0,0,0,0,0,0.6164678,0.5465565,-0.7241347,0.1866455,-1.155151,-0.413208,0,0,0,0,0,0
3.929997,0.07799055,0.7241979,0.2731017,0.2988054,0,0,0,0,0,0,0,0,0,0,0,0,0,0,0.4809523,0.6233757,-0.8041334,0.2675781,-1.177612,-0.3378906,0,0,0,0,0,0
3.939997,0.3202776,1,0.5889741,0.6659641,0,0,0,0,0,0,0,0,0,0,0,0,0,0,0.1580153,0.3363303,-0.3988444,0.229248,-1.198486,-0.345459,0,0,0,0,0,0
3.949997,0.4662001,1,0.7872236,0.8271842,0,0,0,0,0,0,0,0,0,0,0,0,0,0,0.4495634,0.8141603,-0.8329026,0.3186035,-0.956543,-0.399292,0,0,0,0,0,0
3.959997,0.4990265,1,0.826566,0.7786492,0,0,0,0,0,0,0,0,0,0,0,0,0,0,0.2259149,0.3791072,-0.3948513,0.4921875,-1.197021,-0.1313477,0,0,0,0,0,0
3.969997,0.5320019,1,0.8737444,0.7141563,0,0,0,0,0,0,0,0,0,0,0,0,0,0,0.1239432,0.3443423,-0.3323478,0.4694824,-1.345093,0.02380371,0,0,0,0,0,0
3.979997,0.5895449,1,0.9045442,0.657488,0,0,0,0,0,0,0,0,0,0,0,0,0,0,0.01216859,0.5986495,-0.4830067,0.524292,-1.405518,0.05664063,0,0,0,0,0,0
3.989997,0.6056846,1,0.9280418,0.6173669,0,0,0,0,0,0,0,0,0,0,0,0,0,0,-0.08996564,0.5332187,-0.3877168,0.5004883,-1.330688,0.08666992,0,0,0,0,0,0
3.999997,0.6134956,0.9984341,0.9595633,0.5614042,0,0,0,0,0,0,0,0,0,0,0,0,0,0,-0.09745537,0.2263963,-0.1536796,0.4616699,-1.241943,0.1130371,0,0,0,0,0,0
4.009997,0.6302155,1,0.9821059,0.4970172,0,0,0,0,0,0,0,0,0,0,0,0,0,0,-0.2664253,0.3436171,-0.2083765,0.3846436,-1.100342,0.1166992,0,0,0,0,0,0
4.019997,0.6380451,0.991177,0.9895671,0.4729256,0,0,0,0,0,0,0,0,0,0,0,0,0,0,-0.3211043,0.2805503,-0.1392559,0.3947754,-0.9916992,0.08740234,0,0,0,0,0,0
4.029997,0.6464276,0.9917243,0.9885796,0.4565729,0,0,0,0,0,0,0,0,0,0,0,0,0,0,-0.1707026,0.1001148,-0.03737003,0.3898926,-0.8803711,0.06896973,0,0,0,0,0,0
4.039998,0.6542686,0.9834099,0.9885796,0.4565729,0,0,0,0,0,0,0,0,0,0,0,0,0,0,-0.3402785,0.1454961,-0.01038057,0.4002686,-0.789917,0.04138184,0,0,0,0,0,0
4.049998,0.6542686,0.9834099,0.9885796,0.4565729,0,0,0,0,0,0,0,0,0,0,0,0,0,0,-0.3175763,0.1033404,0.050825,0.3774414,-0.7401123,0.04882813,0,0,0,0,0,0
4.059998,0.6542686,0.9834099,0.9900665,0.4811167,0,0,0,0,0,0,0,0,0,0,0,0,0,0,-0.1519304,0.03323478,0.05922288,0.3867188,-0.6993408,0.04406738,0,0,0,0,0,0
4.069998,0.6542686,0.9834099,0.9595633,0.5614042,0,0,0,0,0,0,0,0,0,0,0,0,0,0,-0.2640143,0.01993471,0.1836411,0.3973389,-0.6798096,0.02819824,0,0,0,0,0,0
4.079998,0.6542686,0.9834099,0.9051422,0.6658976,0,0,0,0,0,0,0,0,0,0,0,0,0,0,-0.2323438,-0.01516636,0.234746,0.4007568,-0.6490479,0.006103516,0,0,0,0,0,0
4.089999,0.6542686,0.9834099,0.8513149,0.7633857,0,0,0,0,0,0,0,0,0,0,0,0,0,0,-0.07981502,-0.02768151,0.1342553,0.4268799,-0.6016846,-0.02453613,0,0,0,0,0,0
4.099999,0.6207611,0.981203,0.7951917,0.8191673,0,0,0,0,0,0,0,0,0,0,0,0,0,0,-0.09365273,-0.1038018,0.335434,0.428833,-0.6237793,-0.02539063,0,0,0,0,0,0
4.109999,0.531496,1,0.7475448,0.8674718,0,0,0,0,0,0,0,0,0,0,0,0,0,0,-0.04922872,-0.1289068,0.3610004,0.430542,-0.6517334,-0.03540039,0,0,0,0,0,0
4.119999,0.2962267,1,0.6676687,0.9315377,0,0,0,0,0,0,0,0,0,0,0,0,0,0,0.002998627,-0.1647759,0.3857589,0.4475098,-0.6901855,-0.03295898,0,0,0,0,0,0
4.13,0.1217254,1,0.5957312,0.979558,0,0,0,0,0,0,0,0,0,0,0,0,0,0,0.009745537,-0.09045857,0.2141519,0.456543,-0.7050781,-0.04931641,0,0,0,0,0,0
4.14,-0.05884144,1,0.5149953,1,0,0,0,0,0,0,0,0,0,0,0,0,0,0,0.01474445,-0.111458,0.2234159,0.4577637,-0.7037354,-0.04956055,0,0,0,0,0,0
4.15,-0.3444016,1,0.433522,1,0,0,0,0,0,0,0,0,0,0,0,0,0,0,0.08072048,-0.2626514,0.463076,0.4528809,-0.7463379,-0.04614258,0,0,0,0,0,0
4.16,-0.5154955,1,0.3686016,1,0,0,0,0,0,0,0,0,0,0,0,0,0,0,0.1496824,-0.2856194,0.5005214,0.4401855,-0.7927246,-0.0435791,0,0,0,0,0,0
4.170001,-0.6604159,0.9485974,0.2882255,1,0,0,0,0,0,0,0,0,0,0,0,0,0,0,0.1904204,-0.3161182,0.5262804,0.4111328,-0.8741455,-0.04528809,0,0,0,0,0,0
4.180001,-0.7560699,0.8680802,0.2244794,1,0,0,0,0,0,0,0,0,0,0,0,0,0,0,0.138826,-0.3245541,0.4895419,0.4106445,-0.9909668,-0.0234375,0,0,0,0,0,0
4.190001,-0.8358289,0.7878387,0.1611441,1,0,0,0,0,0,0,0,0,0,0,0,0,0,0,0.001249428,-0.1869144,0.2418892,0.4134521,-1.079956,0.003295898,0,0,0,0,0,0
4.200001,-0.9081243,0.7080969,0.09812176,1,0,0,0,0,0,0,0,0,0,0,0,0,0,0,-0.1411905,-0.4108284,0.4493128,0.3817139,-1.060669,-0.02319336,0,0,0,0,0,0
4.210001,-0.9391946,0.6514414,0.05099206,1,0,0,0,0,0,0,0,0,0,0,0,0,0,0,-0.1939192,-0.43182,0.4045809,0.3778076,-0.9785156,-0.0703125,0,0,0,0,0,0
4.220002,-0.9784681,0.5790934,-0.03378246,0.7694893,0,0,0,0,0,0,0,0,0,0,0,0,0,0,-0.114701,-0.4535608,0.3531023,0.3718262,-0.8951416,-0.1317139,0,0,0,0,0,0
4.230002,-1,0.4908059,-0.04585813,0.06952684,0,0,0,0,0,0,0,0,0,0,0,0,0,0,0.1261985,-0.4285709,0.2903786,0.394165,-0.9202881,-0.09545898,0,0,0,0,0,0
4.240002,-1,0.4253754,0,0,0,0,0,0,0,0,0,0,0,0,0,0,0,0,0.1404794,-0.3569254,0.2569679,0.2695313,-1.078369,-0.0008544922,0,0,0,0,0,0
4.250002,-1,0.3766855,0,0,0,0,0,0,0,0,0,0,0,0,0,0,0,0,0.003172297,-0.328764,0.1633158,0.2836914,-0.9921875,-0.1268311,0,0,0,0,0,0
4.260003,-1,0.336352,0.05890491,-0.08246687,0,0,0,0,0,0,0,0,0,0,0,0,0,0,-0.01099496,-0.1836659,0.02323936,0.321167,-0.9803467,-0.1796875,0,0,0,0,0,0
4.270003,-1,0.2882255,0.173578,-0.2247978,0,0,0,0,0,0,0,0,0,0,0,0,0,0,0.01474325,-0.1871643,-0.006497024,0.2973633,-0.9484863,-0.2543945,0,0,0,0,0,0
4.280003,-1,0.1927661,0.3247324,-0.3862607,0,0,0,0,0,0,0,0,0,0,0,0,0,0,0.09520639,-0.3483405,-0.08621052,0.2772217,-0.9460449,-0.2202148,0,0,0,0,0,0
4.290003,-1,0.1059862,0.417107,-0.4969014,0,0,0,0,0,0,0,0,0,0,0,0,0,0,0.134694,-0.3066218,-0.1074551,0.2958984,-1.020142,-0.1983643,0,0,0,0,0,0
4.300004,-1,0.04314433,0.475794,-0.5956791,0,0,0,0,0,0,0,0,0,0,0,0,0,0,0.04960916,-0.1204464,-0.0297655,0.3062744,-1.105103,-0.1817627,0,0,0,0,0,0
4.310004,-1,0.035298,0.49198,-0.6826698,0,0,0,0,0,0,0,0,0,0,0,0,0,0,0.009687673,-0.1003366,-0.00622779,0.3165283,-1.140137,-0.2114258,0,0,0,0,0,0
4.320004,-1,0.035298,0.4949245,-0.8222761,0,0,0,0,0,0,0,0,0,0,0,0,0,0,-0.03980985,-0.1716579,0.04598016,0.3426514,-1.143311,-0.2570801,0,0,0,0,0,0
4.330004,-1,0.035298,0.4153903,-0.9771562,0,0,0,0,0,0,0,0,0,0,0,0,0,0,-0.05732166,-0.1536463,0.08283,0.3579102,-1.148926,-0.2416992,0,0,0,0,0,0
4.340004,-1,0.05884144,0.2722459,-1,0,0,0,0,0,0,0,0,0,0,0,0,0,0,-0.1505912,-0.1254656,0.09949616,0.3377686,-1.194946,-0.1903076,0,0,0,0,0,0
4.350005,-1,0.09812176,0.1532514,-1,0,0,0,0,0,0,0,0,0,0,0,0,0,0,-0.1526801,-0.06122196,0.04522929,0.331665,-1.100342,-0.2724609,0,0,0,0,0,0
4.360005,-1,0.1927661,0,-1,0,0,0,0,0,0,0,0,0,0,0,0,0,0,-0.268047,-0.0979155,0.07429208,0.2713623,-0.9963379,-0.362915,0,0,0,0,0,0
4.370005,-1,0.2642672,-0.113854,-1,0,0,0,0,0,0,0,0,0,0,0,0,0,0,-0.1992428,-0.07725576,0.07656348,0.2324219,-0.9626465,-0.347168,0,0,0,0,0,0
4.380005,-1,0.3202776,-0.2006854,-1,0,0,0,0,0,0,0,0,0,0,0,0,0,0,-0.05674709,-0.03690867,0.04429041,0.225708,-0.9852295,-0.3231201,0,0,0,0,0,0
4.390006,-1,0.3847782,-0.2962267,-1,0,0,0,0,0,0,0,0,0,0,0,0,0,0,-0.03967683,-0.0433677,0.04590517,0.2316895,-1.022949,-0.2922363,0,0,0,0,0,0
4.400006,-1,0.5062566,-0.433522,-1,0,0,0,0,0,0,0,0,0,0,0,0,0,0,-0.1176043,-0.07577527,0.1145476,0.2404785,-1.083618,-0.2641602,0,0,0,0,0,0
4.410006,-0.9701149,0.5868597,-0.481615,-1,0,0,0,0,0,0,0,0,0,0,0,0,0,0,-0.08845949,-0.02373913,0.0639707,0.2438965,-1.08252,-0.262207,0,0,0,0,0,0
4.420006,-0.922732,0.6670833,-0.4893174,-0.9905694,0,0,0,0,0,0,0,0,0,0,0,0,0,0,-0.114207,-0.01199548,0.05372977,0.2359619,-1.117188,-0.236084,0,0,0,0,0,0
4.430007,-0.8836871,0.731741,-0.4734204,-0.9985589,0,0,0,0,0,0,0,0,0,0,0,0,0,0,-0.3802773,-0.02450984,0.06899285,0.2045898,-1.160156,-0.2185059,0,0,0,0,0,0
4.440007,-0.8674718,0.7475448,-0.3686016,-1,0,0,0,0,0,0,0,0,0,0,0,0,0,0,-0.4758166,-0.03165838,0.01385815,0.1732178,-1.11084,-0.2591553,0,0,0,0,0,0
4.450007,-0.8674718,0.7475448,-0.2562958,-1,0,0,0,0,0,0,0,0,0,0,0,0,0,0,-0.2581301,-0.01914638,-0.02629743,0.1407471,-1.045776,-0.2293701,0,0,0,0,0,0
4.460007,-0.8674718,0.7475448,-0.1453634,-1,0,0,0,0,0,0,0,0,0,0,0,0,0,0,-0.5568976,-0.0541309,-0.09622844,0.1369629,-0.9477539,-0.2368164,0,0,0,0,0,0
4.470007,-0.8674718,0.7475448,-0.04314433,-1,0,0,0,0,0,0,0,0,0,0,0,0,0,0,-0.5457726,-0.06872128,-0.1049562,0.1395264,-0.8874512,-0.255249,0,0,0,0,0,0
4.480008,-0.9075292,0.6996371,0.09812176,-1,0,0,0,0,0,0,0,0,0,0,0,0,0,0,-0.2382938,-0.0387165,-0.04446152,0.1512451,-0.8962402,-0.2720947,0,0,0,0,0,0
4.490008,-0.9784681,0.5790934,0.3766855,-1,0,0,0,0,0,0,0,0,0,0,0,0,0,0,-0.3736415,-0.08743179,-0.03504534,0.1829834,-0.8778076,-0.27771,0,0,0,0,0,0
4.500008,-1,0.4662001,0.6664929,-0.9139333,0,0,0,0,0,0,0,0,0,0,0,0,0,0,-0.1637823,-0.04682788,0.02099181,0.1658936,-0.8684082,-0.2478027,0,0,0,0,0,0
4.510008,-1,0.336352,0.9445959,-0.6018312,0,0,0,0,0,0,0,0,0,0,0,0,0,0,-0.3626534,-0.1298675,0.06141626,0.09838867,-0.7790527,-0.3287354,0,0,0,0,0,0
4.520009,-1,0.2324234,0.9826212,-0.5052344,0,0,0,0,0,0,0,0,0,0,0,0,0,0,-0.1611762,-0.1116988,0.03573363,0.2330322,-0.7631836,-0.3875732,0,0,0,0,0,0
4.530009,-1,0.09026043,1,-0.4493711,0,0,0,0,0,0,0,0,0,0,0,0,0,0,-0.2067205,-0.2495671,0.1138936,0.1748047,-0.7738037,-0.3669434,0,0,0,0,0,0
4.540009,-1,-0.06669273,1,-0.4172379,0,0,0,0,0,0,0,0,0,0,0,0,0,0,-0.03737333,-0.1049683,0.07243967,0.2025146,-0.7515869,-0.3565674,0,0,0,0,0,0
4.550009,-1,-0.3605264,1,-0.3444016,0,0,0,0,0,0,0,0,0,0,0,0,0,0,0.01372556,-0.22303,0.1477319,0.1911621,-0.8258057,-0.2956543,0,0,0,0,0,0
4.560009,-0.8688172,-0.646654,1,-0.1848525,0,0,0,0,0,0,0,0,0,0,0,0,0,0,0.005497686,-0.2524466,0.1337211,0.1722412,-0.8824463,-0.2735596,0,0,0,0,0,0
4.57001,-0.7742289,-0.766288,1,0.01176485,0,0,0,0,0,0,0,0,0,0,0,0,0,0,-0.03697802,-0.2713323,0.1216741,0.1425781,-0.8704834,-0.2993164,0,0,0,0,0,0
4.58001,-0.7110435,-0.8302128,0.8747919,0.1888317,0,0,0,0,0,0,0,0,0,0,0,0,0,0,-0.008746706,-0.1404471,0.0594776,0.1695557,-0.8308105,-0.3345947,0,0,0,0,0,0
4.59001,-0.6000989,-0.9180321,0.4477983,0.2950608,0,0,0,0,0,0,0,0,0,0,0,0,0,0,0.05598071,-0.2647176,0.138395,0.2143555,-0.8375244,-0.2808838,0,0,0,0,0,0
4.60001,-0.4795869,-0.9631374,0.1730732,0.3367061,0,0,0,0,0,0,0,0,0,0,0,0,0,0,0.04023157,-0.1256924,0.09345719,0.2432861,-0.8459473,-0.2956543,0,0,0,0,0,0
4.610011,-0.2780743,-0.951719,-0.08613493,0.3860121,0,0,0,0,0,0,0,0,0,0,0,0,0,0,0.1044565,-0.2161595,0.2366515,0.2392578,-0.9049072,-0.2749023,0,0,0,0,0,0
4.620011,-0.1413055,-0.836376,-0.2687846,0.4782272,0,0,0,0,0,0,0,0,0,0,0,0,0,0,0.09321131,-0.1746773,0.2636399,0.1976318,-0.9245605,-0.2661133,0,0,0,0,0,0
4.630011,-0.083373,-0.6416097,-0.4769513,0.5287135,0,0,0,0,0,0,0,0,0,0,0,0,0,0,0.0254904,-0.07722092,0.1322002,0.2138672,-0.9465332,-0.2667236,0,0,0,0,0,0
4.640011,-0.04598255,-0.3464019,-0.747229,0.5381597,0,0,0,0,0,0,0,0,0,0,0,0,0,0,-0.01099505,-0.1446897,0.2503957,0.1777344,-0.9893799,-0.2888184,0,0,0,0,0,0
4.650012,-0.01671966,-0.1886933,-0.927304,0.4774629,0,0,0,0,0,0,0,0,0,0,0,0,0,0,-0.03473409,-0.06122196,0.09495651,0.1464844,-0.951416,-0.2867432,0,0,0,0,0,0
4.660012,0.02431372,-0.117828,-1,0.4009901,0,0,0,0,0,0,0,0,0,0,0,0,0,0,-0.09471045,-0.1092044,0.1057055,0.1450195,-0.9227295,-0.319458,0,0,0,0,0,0
4.670012,0.05314152,-0.1200605,-1,0.3686016,0,0,0,0,0,0,0,0,0,0,0,0,0,0,-0.0812159,-0.09670958,0.05347736,0.1151123,-0.8936768,-0.3253174,0,0,0,0,0,0
4.680012,0.1155518,-0.1438502,-1,0.3605264,0,0,0,0,0,0,0,0,0,0,0,0,0,0,-0.01524302,-0.04822791,0.008745994,0.1320801,-0.887207,-0.3571777,0,0,0,0,0,0
4.690012,0.3214436,-0.3148159,-1,0.3524597,0,0,0,0,0,0,0,0,0,0,0,0,0,0,0.03091118,-0.1001732,0.02871975,0.104126,-0.875,-0.3887939,0,0,0,0,0,0
4.700013,0.5650964,-0.5052186,-1,0.3524597,0,0,0,0,0,0,0,0,0,0,0,0,0,0,0.07996635,-0.1064556,0.04673039,0.1115723,-0.8728027,-0.4023438,0,0,0,0,0,0
4.710013,0.8475996,-0.712302,-1,0.3524597,0,0,0,0,0,0,0,0,0,0,0,0,0,0,0.09096225,-0.1142023,0.05447731,0.08850098,-0.8929443,-0.3778076,0,0,0,0,0,0
4.720013,0.856306,-0.7129246,-1,0.3524597,0,0,0,0,0,0,0,0,0,0,0,0,0,0,0.05072846,-0.1139524,0.03623475,0.1491699,-0.9711914,-0.3989258,0,0,0,0,0,0
4.730013,0.8644044,-0.7050672,-1,0.3524597,0,0,0,0,0,0,0,0,0,0,0,0,0,0,-0.02629603,-0.09265307,0.02347069,0.1625977,-1.089111,-0.3778076,0,0,0,0,0,0
4.740014,0.8812595,-0.69783,-1,0.3524597,0,0,0,0,0,0,0,0,0,0,0,0,0,0,-0.07221941,-0.07971689,0.04198214,0.1943359,-1.092407,-0.394165,0,0,0,0,0,0
4.750014,0.9428936,-0.5768758,-0.8177526,0.3109764,0,0,0,0,0,0,0,0,0,0,0,0,0,0,-0.1229486,-0.02948743,0.1221992,0.1281738,-0.9680176,-0.4146729,0,0,0,0,0,0
4.760014,0.9980689,-0.4652353,-0.7035188,0.219617,0,0,0,0,0,0,0,0,0,0,0,0,0,0,-0.03648626,0.001249529,0.06022732,0.08557129,-0.9068604,-0.4604492,0,0,0,0,0,0
4.770014,1,-0.2882255,-0.5886161,0.124858,0,0,0,0,0,0,0,0,0,0,0,0,0,0,0.005959451,0.005824396,0.0819457,0.01879883,-0.9226074,-0.4979248,0,0,0,0,0,0
4.780015,1,-0.1927661,-0.4859122,0.08494968,0,0,0,0,0,0,0,0,0,0,0,0,0,0,0.04244498,-0.007151056,0.01153396,-0.008422852,-0.9641113,-0.4816895,0,0,0,0,0,0
4.790015,1,-0.09812176,-0.4031442,0.07417853,0,0,0,0,0,0,0,0,0,0,0,0,0,0,0.09622783,-0.05017121,-0.04013709,-0.006469727,-1.077026,-0.4569092,0,0,0,0,0,0
4.800015,1,-0.035298,-0.3940101,0.07367668,0,0,0,0,0,0,0,0,0,0,0,0,0,0,0.016878,-0.07464119,-0.0516127,0.0480957,-1.143066,-0.4434814,0,0,0,0,0,0
4.810015,1,0.02745281,-0.3940101,0.07367668,0,0,0,0,0,0,0,0,0,0,0,0,0,0,-0.1019584,-0.09546027,-0.05072886,0.09240723,-1.219482,-0.4179688,0,0,0,0,0,0
4.820015,1,0.08240198,-0.3940101,0.07367668,0,0,0,0,0,0,0,0,0,0,0,0,0,0,-0.1361987,-0.0549793,-0.03123824,0.1080322,-1.264648,-0.4022217,0,0,0,0,0,0
4.830016,1,0.1374799,-0.3940101,0.07367668,0,0,0,0,0,0,0,0,0,0,0,0,0,0,-0.4136325,-0.1159892,-0.06566432,0.06494141,-1.344482,-0.3909912,0,0,0,0,0,0
4.840016,1,0.1611441,-0.3940101,0.07367668,0,0,0,0,0,0,0,0,0,0,0,0,0,0,-0.5787973,-0.1198964,-0.0309113,0.01940918,-1.526611,-0.3612061,0,0,0,0,0,0
4.850016,1,0.1769445,-0.3940101,0.07367668,0,0,0,0,0,0,0,0,0,0,0,0,0,0,-0.8296638,-0.117354,0.07135303,0.03991699,-1.804077,-0.3005371,0,0,0,0,0,0
4.860016,1,0.2086106,-0.4138862,0.09450946,0,0,0,0,0,0,0,0,0,0,0,0,0,0,-0.6096852,-0.04013819,0.1464813,0.1091309,-2.012695,-0.2049561,0,0,0,0,0,0
4.870017,1,0.3202776,-0.4798275,0.1259122,0,0,0,0,0,0,0,0,0,0,0,0,0,0,-1.815495,-0.04947919,0.571263,0.2253418,-1.915527,-0.2041016,0,0,0,0,0,0
4.880017,1,0.4416777,-0.497982,0.1270713,0,0,0,0,0,0,0,0,0,0,0,0,0,0,-2.081383,-0.04073312,0.7211998,0.2061768,-1.617798,-0.2677002,0,0,0,0,0,0
4.890017,0.9773847,0.5624949,-0.497982,0.1270713,0,0,0,0,0,0,0,0,0,0,0,0,0,0,-1.106743,-0.03523386,0.3913208,0.1286621,-1.225708,-0.3349609,0,0,0,0,0,0
4.900017,0.9374622,0.6263045,-0.4969029,0.1130882,0,0,0,0,0,0,0,0,0,0,0,0,0,0,-1.08784,-0.05972751,0.363863,0.04394531,-0.8225098,-0.4099121,0,0,0,0,0,0
4.910017,0.9063369,0.6827472,-0.4959298,0.09918596,0,0,0,0,0,0,0,0,0,0,0,0,0,0,-1.956039,-0.175106,0.5692821,0.01965332,-0.418335,-0.4313965,0,0,0,0,0,0
4.920018,0.8894031,0.6899853,-0.4959298,0.09918596,0,0,0,0,0,0,0,0,0,0,0,0,0,0,-1.837756,-0.2222134,0.394216,0.0246582,-0.2164307,-0.4700928,0,0,0,0,0,0
4.930018,0.845718,0.6868977,-0.5966043,0.103602,0,0,0,0,0,0,0,0,0,0,0,0,0,0,-1.683796,-0.2821325,0.2049137,0.03527832,-0.1057129,-0.5415039,0,0,0,0,0,0
4.940018,0.8283036,0.6856292,-0.7167883,0.1299875,0,0,0,0,0,0,0,0,0,0,0,0,0,0,-1.515617,-0.3106205,0.1324445,0.0423584,-0.07019043,-0.5441895,0,0,0,0,0,0
4.950018,0.8283036,0.6856292,-0.8928164,0.1816553,0,0,0,0,0,0,0,0,0,0,0,0,0,0,-0.707426,-0.1601766,0.06846865,0.03955078,-0.03967285,-0.5422363,0,0,0,0,0,0
4.960019,0.8894031,0.6899853,-1,0.2244794,0,0,0,0,0,0,0,0,0,0,0,0,0,0,-1.198503,-0.3551908,0.2645523,0.2004395,0.02612305,-0.6619873,0,0,0,0,0,0
4.970019,0.8981643,0.6905887,-1,0.2483314,0,0,0,0,0,0,0,0,0,0,0,0,0,0,-0.8063337,-0.4151692,0.5051295,0.06884766,0.1230469,-0.6577148,0,0,0,0,0,0
4.980019,0.9069334,0.6911871,-1,0.2562958,0,0,0,0,0,0,0,0,0,0,0,0,0,0,-0.1543244,-0.2230668,0.3395598,0.02514648,0.1516113,-0.5640869,0,0,0,0,0,0
4.990019,0.91571,0.691781,-1,0.2562958,0,0,0,0,0,0,0,0,0,0,0,0,0,0,0.01474538,-0.5702626,0.8941276,-0.01879883,0.1318359,-0.5351563,0,0,0,0,0,0
5.00002,0.9244941,0.6923701,-1,0.2562958,0,0,0,0,0,0,0,0,0,0,0,0,0,0,0.1909214,-0.655477,0.9608493,-0.03588867,0.1815186,-0.5117188,0,0,0,0,0,0
5.01002,0.9244941,0.6923701,-1,0.2562958,0,0,0,0,0,0,0,0,0,0,0,0,0,0,0.2126526,-0.362334,0.487027,-0.0625,0.2219238,-0.4995117,0,0,0,0,0,0
5.02002,0.9244941,0.6923701,-1,0.2562958,0,0,0,0,0,0,0,0,0,0,0,0,0,0,0.7214926,-0.7472906,0.9312395,-0.08789063,0.1169434,-0.4725342,0,0,0,0,0,0
5.03002,0.9244941,0.6923701,-1,0.2562958,0,0,0,0,0,0,0,0,0,0,0,0,0,0,0.9349661,-0.7703069,0.8849896,-0.1497803,0.0402832,-0.4567871,0,0,0,0,0,0
5.04002,0.9244941,0.6923701,-1,0.2562958,0,0,0,0,0,0,0,0,0,0,0,0,0,0,0.5559369,-0.3766992,0.3557074,-0.1859131,-0.004638672,-0.4699707,0,0,0,0,0,0
5.050021,0.8761782,0.7481521,-1,0.1927661,0,0,0,0,0,0,0,0,0,0,0,0,0,0,1.429905,-0.8344018,0.5565164,-0.1807861,-0.0637207,-0.4633789,0,0,0,0,0,0
5.060021,0.7884504,0.8444824,-0.8264564,0.1180652,0,0,0,0,0,0,0,0,0,0,0,0,0,0,1.637568,-0.8074127,0.3463539,-0.3033447,-0.1519775,-0.4532471,0,0,0,0,0,0
5.070021,0.6766679,0.9409287,-0.5755778,0.01059346,0,0,0,0,0,0,0,0,0,0,0,0,0,0,0.9332466,-0.3735485,0.05771886,-0.3684082,-0.3227539,-0.454834,0,0,0,0,0,0
5.080021,0.4498426,1,-0.1565978,-0.09115396,0,0,0,0,0,0,0,0,0,0,0,0,0,0,1.835739,-0.5851606,-0.05213375,-0.5235596,-0.7263184,-0.3269043,0,0,0,0,0,0
5.090022,0.2802319,1,0.002102181,-0.03153272,0,0,0,0,0,0,0,0,0,0,0,0,0,0,1.678999,-0.4962124,-0.1806911,-0.5578613,-0.9493408,-0.2958984,0,0,0,0,0,0
5.100022,0.05884144,1,0.119838,-0.1589688,0,0,0,0,0,0,0,0,0,0,0,0,0,0,1.480631,-0.4920446,-0.3643492,-0.5340576,-1.083862,-0.3417969,0,0,0,0,0,0
5.110022,-0.2962267,1,0.3535698,-0.3198965,0,0,0,0,0,0,0,0,0,0,0,0,0,0,1.228736,-0.4530606,-0.5915042,-0.4642334,-1.18689,-0.342041,0,0,0,0,0,0
5.120022,-0.5552751,0.9947014,0.5612676,-0.3925205,0,0,0,0,0,0,0,0,0,0,0,0,0,0,1.093043,-0.3935853,-0.6922115,-0.4279785,-1.247437,-0.3188477,0,0,0,0,0,0
5.130023,-0.7475448,0.8674718,0.8077751,-0.4212798,0,0,0,0,0,0,0,0,0,0,0,0,0,0,0.4709959,-0.1674097,-0.3500611,-0.4029541,-1.313843,-0.3483887,0,0,0,0,0,0
5.140023,-0.9075292,0.6996371,0.996623,-0.4407377,0,0,0,0,0,0,0,0,0,0,0,0,0,0,0.420376,-0.1612024,-0.3204055,-0.489502,-1.379761,-0.3657227,0,0,0,0,0,0
5.150023,-1,0.3444016,1,-0.4167845,0,0,0,0,0,0,0,0,0,0,0,0,0,0,0.6200453,-0.3451411,-0.5300254,-0.364624,-1.426514,-0.4674072,0,0,0,0,0,0
5.160023,-1,-0.01176485,1,-0.4172379,0,0,0,0,0,0,0,0,0,0,0,0,0,0,0.4760505,-0.4240733,-0.436817,-0.3731689,-1.379395,-0.5294189,0,0,0,0,0,0
5.170023,-1,-0.2483314,1,-0.3928797,0,0,0,0,0,0,0,0,0,0,0,0,0,0,0.1761693,-0.2293949,-0.1671734,-0.3493652,-1.330688,-0.5406494,0,0,0,0,0,0
5.180024,-1,-0.3766855,1,-0.3444016,0,0,0,0,0,0,0,0,0,0,0,0,0,0,0.2838707,-0.4955224,-0.2836205,-0.2913818,-1.259277,-0.5583496,0,0,0,0,0,0
5.190024,-0.9652384,-0.5124105,1,-0.3122526,0,0,0,0,0,0,0,0,0,0,0,0,0,0,0.2004171,-0.5000415,-0.2661391,-0.3345947,-1.269897,-0.5274658,0,0,0,0,0,0
5.200024,-0.8625466,-0.6797026,1,-0.2722459,0,0,0,0,0,0,0,0,0,0,0,0,0,0,0.02149191,-0.2309131,-0.1147068,-0.3643799,-1.266113,-0.5140381,0,0,0,0,0,0
5.210024,-0.711675,-0.8389018,1,-0.2165419,0,0,0,0,0,0,0,0,0,0,0,0,0,0,-0.09555949,-0.4021153,-0.178374,-0.3522949,-1.15332,-0.5266113,0,0,0,0,0,0
5.220025,-0.5685782,-0.9423288,1,-0.1769445,0,0,0,0,0,0,0,0,0,0,0,0,0,0,-0.09096241,-0.3518537,-0.1197006,-0.3566895,-1.067139,-0.5201416,0,0,0,0,0,0
5.230025,-0.4091095,-1,1,-0.1611441,0,0,0,0,0,0,0,0,0,0,0,0,0,0,-0.0154929,-0.1256924,-0.01774187,-0.3205566,-1.084229,-0.5131836,0,0,0,0,0,0
5.240025,-0.2324234,-1,0.9930453,-0.1609283,0,0,0,0,0,0,0,0,0,0,0,0,0,0,-0.08696017,-0.07771441,0.007746452,-0.3181152,-1.119141,-0.4743652,0,0,0,0,0,0
5.250025,0.1217254,-1,0.6779984,-0.2408191,0,0,0,0,0,0,0,0,0,0,0,0,0,0,-0.4518129,-0.03823337,0.02698866,-0.3293457,-0.9759521,-0.4373779,0,0,0,0,0,0
5.260026,0.4172379,-1,0.4149675,-0.2983651,0,0,0,0,0,0,0,0,0,0,0,0,0,0,-0.2876183,0.04123111,-0.002998627,-0.3408203,-0.8453369,-0.4541016,0,0,0,0,0,0
5.270026,0.7719339,-0.851927,0.1477865,-0.2985891,0,0,0,0,0,0,0,0,0,0,0,0,0,0,-0.4703584,0.1792197,-0.03967707,-0.3620605,-0.7648926,-0.4527588,0,0,0,0,0,0
5.280026,0.9351605,-0.5929316,0,-0.3540946,0,0,0,0,0,0,0,0,0,0,0,0,0,0,-0.3371105,0.2466468,-0.07721744,-0.404541,-0.7802734,-0.4464111,0,0,0,0,0,0
5.290026,1,-0.3766855,-0.1715977,-0.5288011,0,0,0,0,0,0,0,0,0,0,0,0,0,0,-0.0762213,0.1399473,-0.07047346,-0.4213867,-0.8034668,-0.4648438,0,0,0,0,0,0
5.300026,1,-0.1532514,-0.3823674,-0.8226693,0,0,0,0,0,0,0,0,0,0,0,0,0,0,-0.1168782,0.2994622,-0.1735105,-0.4277344,-0.8271484,-0.4527588,0,0,0,0,0,0
5.310027,1,-0.035298,-0.391998,-0.9938535,0,0,0,0,0,0,0,0,0,0,0,0,0,0,-0.08788104,0.1612306,-0.08442115,-0.3842773,-0.8566895,-0.447876,0,0,0,0,0,0
5.320027,1,0.1690417,-0.2483314,-1,0,0,0,0,0,0,0,0,0,0,0,0,0,0,-0.2894726,0.3747443,-0.2027405,-0.3520508,-0.894165,-0.4039307,0,0,0,0,0,0
5.330027,1,0.3928797,-0.06669273,-1,0,0,0,0,0,0,0,0,0,0,0,0,0,0,-0.1539295,0.2116531,-0.1249428,-0.3492432,-0.8684082,-0.3829346,0,0,0,0,0,0
5.340027,0.7951917,0.8191673,0.1611441,-1,0,0,0,0,0,0,0,0,0,0,0,0,0,0,-0.2906771,0.4398315,-0.2954252,-0.380127,-0.8260498,-0.4019775,0,0,0,0,0,0
5.350028,0.4662001,1,0.3122526,-1,0,0,0,0,0,0,0,0,0,0,0,0,0,0,-0.08881934,0.2244707,-0.177408,-0.4067383,-0.7485352,-0.4904785,0,0,0,0,0,0
5.360028,0.035298,1,0.5067592,-1,0,0,0,0,0,0,0,0,0,0,0,0,0,0,-0.05678388,0.4617459,-0.4448681,-0.399292,-0.7518311,-0.4628906,0,0,0,0,0,0
5.370028,-0.2403741,1,0.6430523,-0.9386168,0,0,0,0,0,0,0,0,0,0,0,0,0,0,-0.04365034,0.4465417,-0.4834065,-0.3776855,-0.7764893,-0.4284668,0,0,0,0,0,0
5.380028,-0.4253754,1,0.7627706,-0.8426419,0,0,0,0,0,0,0,0,0,0,0,0,0,0,-0.03498398,0.2246471,-0.2581318,-0.3575439,-0.7658691,-0.4213867,0,0,0,0,0,0
5.390028,-0.547518,1,0.849466,-0.7377991,0,0,0,0,0,0,0,0,0,0,0,0,0,0,-0.04273043,0.2154014,-0.2508851,-0.2830811,-0.7657471,-0.4543457,0,0,0,0,0,0
5.400029,-0.6358177,0.9557259,0.9039459,-0.649089,0,0,0,0,0,0,0,0,0,0,0,0,0,0,-0.07990849,0.3907569,-0.4309325,-0.2521973,-0.729126,-0.4848633,0,0,0,0,0,0
5.410029,-0.771321,0.8432577,0.9039459,-0.649089,0,0,0,0,0,0,0,0,0,0,0,0,0,0,-0.03873698,0.3837539,-0.3831965,-0.2181396,-0.7597656,-0.4715576,0,0,0,0,0,0
5.420029,-0.8830822,0.7232483,0.9039459,-0.649089,0,0,0,0,0,0,0,0,0,0,0,0,0,0,0.008496109,0.2001583,-0.1961602,-0.1889648,-0.7767334,-0.4462891,0,0,0,0,0,0
5.430029,-0.9931315,0.5304679,0.8927374,-0.6149969,0,0,0,0,0,0,0,0,0,0,0,0,0,0,0.05172845,0.4198247,-0.4038314,-0.1330566,-0.8081055,-0.378418,0,0,0,0,0,0
5.44003,-1,0.4172379,0.8927374,-0.6149969,0,0,0,0,0,0,0,0,0,0,0,0,0,0,-0.004248401,0.2211667,-0.196426,-0.06018066,-0.9029541,-0.3668213,0,0,0,0,0,0
5.45003,-1,0.3283107,0.919205,-0.6167826,0,0,0,0,0,0,0,0,0,0,0,0,0,0,-0.100303,0.4501546,-0.3440268,-0.07861328,-0.9071045,-0.3754883,0,0,0,0,0,0
5.46003,-1,0.2802319,0.9274606,-0.6090192,0,0,0,0,0,0,0,0,0,0,0,0,0,0,-0.08371848,0.2369108,-0.1644381,-0.04846191,-0.894165,-0.4018555,0,0,0,0,0,0
5.47003,-1,0.1690417,0.9268799,-0.6006819,0,0,0,0,0,0,0,0,0,0,0,0,0,0,-0.1391914,0.445564,-0.2556428,-0.03161621,-0.8527832,-0.4553223,0,0,0,0,0,0
5.480031,-1,0.04314433,0.9357346,-0.6012593,0,0,0,0,0,0,0,0,0,0,0,0,0,0,-0.02273948,0.4128274,-0.1786749,0.01501465,-0.8181152,-0.5396729,0,0,0,0,0,0
5.490031,-1,-0.1453634,0.9501057,-0.552572,0,0,0,0,0,0,0,0,0,0,0,0,0,0,0.1610667,0.3404511,-0.08828907,0.002929688,-0.8587646,-0.5341797,0,0,0,0,0,0
5.500031,-1,-0.2403741,0.9885796,-0.4565729,0,0,0,0,0,0,0,0,0,0,0,0,0,0,0.227405,0.3218659,-0.04023347,0.01257324,-0.876709,-0.5045166,0,0,0,0,0,0
5.510031,-1,-0.3042357,1,-0.2642672,0,0,0,0,0,0,0,0,0,0,0,0,0,0,0.2177537,0.2860323,-0.019261,0.009887695,-0.8892822,-0.4822998,0,0,0,0,0,0
5.520031,-1,-0.3042357,1,-0.035298,0,0,0,0,0,0,0,0,0,0,0,0,0,0,0.09946255,0.1391976,-0.02499059,0.03527832,-0.8553467,-0.5067139,0,0,0,0,0,0
5.530032,-0.9309966,-0.2220369,1,0.1690417,0,0,0,0,0,0,0,0,0,0,0,0,0,0,0.104702,0.1299405,-0.02798718,0.1032715,-0.8789063,-0.4935303,0,0,0,0,0,0
5.540032,-0.6498291,0.04719429,1,0.3042357,0,0,0,0,0,0,0,0,0,0,0,0,0,0,0.2688883,0.2643898,0.007247454,0.1347656,-0.8848877,-0.4851074,0,0,0,0,0,0
5.550032,-0.4082529,0.2530493,1,0.3686016,0,0,0,0,0,0,0,0,0,0,0,0,0,0,0.1854151,0.1444338,0.03998169,0.1027832,-0.8404541,-0.5010986,0,0,0,0,0,0
5.560032,-0.2239315,0.6497685,1,0.4253754,0,0,0,0,0,0,0,0,0,0,0,0,0,0,0.4758399,0.3081464,0.08872032,0.04541016,-0.8394775,-0.4621582,0,0,0,0,0,0
5.570033,-0.1374799,1,1,0.4416777,0,0,0,0,0,0,0,0,0,0,0,0,0,0,0.4667251,0.3018459,0.07404856,0.01330566,-0.8314209,-0.4863281,0,0,0,0,0,0
5.580033,0.01176485,1,1,0.4825947,0,0,0,0,0,0,0,0,0,0,0,0,0,0,0.3108576,0.1766691,0.03348466,-0.0970459,-0.8129883,-0.5310059,0,0,0,0,0,0
5.590033,0.035298,1,1,0.5154955,0,0,0,0,0,0,0,0,0,0,0,0,0,0,0.2828704,0.1539295,-0.005997253,-0.01867676,-0.9603271,-0.4014893,0,0,0,0,0,0
5.600033,0.035298,1,1,0.5557991,0,0,0,0,0,0,0,0,0,0,0,0,0,0,0.3048712,0.2621404,-0.09021264,0.06713867,-1.034058,-0.3079834,0,0,0,0,0,0
5.610034,0.035298,1,1,0.5557991,0,0,0,0,0,0,0,0,0,0,0,0,0,0,0.1059547,0.2558933,-0.1284468,0.01757813,-1.060547,-0.3070068,0,0,0,0,0,0
5.620034,0.035298,1,1,0.5309846,0,0,0,0,0,0,0,0,0,0,0,0,0,0,-0.002498855,0.1289409,-0.1017034,0.03991699,-1.024658,-0.3751221,0,0,0,0,0,0
5.630034,0.09026043,1,1,0.3686016,0,0,0,0,0,0,0,0,0,0,0,0,0,0,-0.02387439,0.2247507,-0.2687508,0.005493164,-1.030396,-0.3945313,0,0,0,0,0,0
5.640034,0.1769445,1,1,0.1453634,0,0,0,0,0,0,0,0,0,0,0,0,0,0,-0.04079019,0.1950519,-0.313578,0.006835938,-1.000854,-0.3793945,0,0,0,0,0,0
5.650034,0.3042357,1,0.8650186,-0.1730037,0,0,0,0,0,0,0,0,0,0,0,0,0,0,-0.05297574,0.07846407,-0.1721711,0.07141113,-1.003662,-0.3496094,0,0,0,0,0,0
5.660035,0.5879496,0.9879154,0.6845899,-0.6072351,0,0,0,0,0,0,0,0,0,0,0,0,0,0,-0.2111461,0.1331835,-0.2826073,0.1777344,-1.002319,-0.3924561,0,0,0,0,0,0
5.670035,0.8339776,0.7621517,0.5995105,-0.9091914,0,0,0,0,0,0,0,0,0,0,0,0,0,0,-0.1901699,0.1474387,-0.1946682,0.1479492,-0.9025879,-0.4776611,0,0,0,0,0,0
5.680035,0.9915852,0.5057483,0.5062566,-1,0,0,0,0,0,0,0,0,0,0,0,0,0,0,-0.2239096,0.2723902,-0.2528976,0.1107178,-0.9169922,-0.4545898,0,0,0,0,0,0
5.690035,1,0.4493711,0.4416777,-1,0,0,0,0,0,0,0,0,0,0,0,0,0,0,-0.134789,0.1328476,-0.2054701,0.1500244,-0.9008789,-0.4628906,0,0,0,0,0,0
5.700036,1,0.4253754,0.4009901,-1,0,0,0,0,0,0,0,0,0,0,0,0,0,0,-0.03523386,0.05997253,-0.1154471,0.1208496,-0.9187012,-0.4643555,0,0,0,0,0,0
5.710036,1,0.4172379,0.3605264,-1,0,0,0,0,0,0,0,0,0,0,0,0,0,0,-0.008746706,0.05897779,-0.1137072,0.09545898,-0.9020996,-0.4794922,0,0,0,0,0,0
5.720036,1,0.4172379,0.2962267,-1,0,0,0,0,0,0,0,0,0,0,0,0,0,0,0.01549349,0.09595982,-0.2533944,0.131958,-0.944458,-0.4405518,0,0,0,0,0,0
5.730036,1,0.4172379,0.2403741,-1,0,0,0,0,0,0,0,0,0,0,0,0,0,0,-0.003498744,0.07621811,-0.2666388,0.1459961,-0.9611816,-0.4050293,0,0,0,0,0,0
5.740036,1,0.4172379,0.1690417,-1,0,0,0,0,0,0,0,0,0,0,0,0,0,0,-0.03344869,0.06705123,-0.2745294,0.1661377,-0.9541016,-0.4049072,0,0,0,0,0,0
5.750037,1,0.4172379,0.09026043,-1,0,0,0,0,0,0,0,0,0,0,0,0,0,0,-0.02652811,0.03529393,-0.1363314,0.1785889,-0.9349365,-0.4019775,0,0,0,0,0,0
5.760037,1,0.4172379,0.01960851,-1,0,0,0,0,0,0,0,0,0,0,0,0,0,0,-0.0232986,0.04244498,-0.1301031,0.1807861,-0.914917,-0.3983154,0,0,0,0,0,0
5.770037,1,0.4172379,-0.05884144,-1,0,0,0,0,0,0,0,0,0,0,0,0,0,0,-0.03110198,0.1128368,-0.2461836,0.180542,-0.8952637,-0.4086914,0,0,0,0,0,0
5.780037,1,0.4172379,-0.09812176,-1,0,0,0,0,0,0,0,0,0,0,0,0,0,0,-0.01099496,0.06871853,-0.122194,0.1851807,-0.9017334,-0.3978271,0,0,0,0,0,0
5.790038,1,0.4172379,-0.1217254,-1,0,0,0,0,0,0,0,0,0,0,0,0,0,0,-0.04138684,0.2116249,-0.3618329,0.1921387,-0.9127197,-0.40625,0,0,0,0,0,0
5.800038,0.9821059,0.4970172,-0.1453634,-1,0,0,0,0,0,0,0,0,0,0,0,0,0,0,-0.06672148,0.1584325,-0.2143897,0.2409668,-0.9066162,-0.383667,0,0,0,0,0,0
5.810038,0.9268799,0.6006819,-0.1453634,-1,0,0,0,0,0,0,0,0,0,0,0,0,0,0,-0.07424081,0.1728567,-0.1824305,0.2390137,-0.894165,-0.3929443,0,0,0,0,0,0
5.820038,0.8488457,0.72929,-0.1453634,-1,0,0,0,0,0,0,0,0,0,0,0,0,0,0,-0.02898672,0.09595605,-0.08046314,0.2290039,-0.8881836,-0.4100342,0,0,0,0,0,0
5.830039,0.7542298,0.8420238,-0.1453634,-1,0,0,0,0,0,0,0,0,0,0,0,0,0,0,-0.02548625,0.09369945,-0.07121158,0.222168,-0.8946533,-0.4023438,0,0,0,0,0,0
5.840039,0.5144897,1,-0.1374799,-1,0,0,0,0,0,0,0,0,0,0,0,0,0,0,-0.07596848,0.1686795,-0.131695,0.2202148,-0.890625,-0.4022217,0,0,0,0,0,0
5.850039,0.2086106,1,-0.1217254,-1,0,0,0,0,0,0,0,0,0,0,0,0,0,0,-0.05622612,0.1576842,-0.1209494,0.2503662,-0.8509521,-0.4394531,0,0,0,0,0,0
5.860039,-0.06669273,1,-0.05875981,-0.9910821,0,0,0,0,0,0,0,0,0,0,0,0,0,0,-0.001384198,0.07267037,-0.03737333,0.2487793,-0.8577881,-0.3729248,0,0,0,0,0,0
5.870039,-0.3042357,1,0.1052619,-0.6424603,0,0,0,0,0,0,0,0,0,0,0,0,0,0,-0.03183251,0.1358462,-0.05941697,0.1809082,-0.8258057,-0.3760986,0,0,0,0,0,0
5.88004,-0.4253754,1,0.2005697,-0.2238241,0,0,0,0,0,0,0,0,0,0,0,0,0,0,-0.0367347,0.09695928,-0.09920883,0.1560059,-0.8343506,-0.4298096,0,0,0,0,0,0
5.89004,-0.4990265,1,0.2496727,-0.06859139,0,0,0,0,0,0,0,0,0,0,0,0,0,0,-0.01824262,0.05847584,-0.129196,0.2034912,-0.8277588,-0.4483643,0,0,0,0,0,0
5.90004,-0.5547456,0.9857708,0.3548964,0.03394661,0,0,0,0,0,0,0,0,0,0,0,0,0,0,-0.0009995218,0.03723443,-0.1276966,0.2635498,-0.8531494,-0.397583,0,0,0,0,0,0
5.91004,-0.6185194,0.9457361,0.5257915,0.1358005,0,0,0,0,0,0,0,0,0,0,0,0,0,0,-0.004998118,0.01924275,-0.05023109,0.2930908,-0.8796387,-0.3699951,0,0,0,0,0,0
5.920041,-0.6815439,0.888797,0.8358251,0.31199,0,0,0,0,0,0,0,0,0,0,0,0,0,0,-0.01726184,0.04400055,-0.05674484,0.2906494,-0.8850098,-0.380127,0,0,0,0,0,0
5.930041,-0.7299091,0.8575435,1,0.4253754,0,0,0,0,0,0,0,0,0,0,0,0,0,0,0.006689087,0.04163628,-0.03688805,0.1606445,-0.8292236,-0.4417725,0,0,0,0,0,0
5.940041,-0.7847294,0.7926962,1,0.4253754,0,0,0,0,0,0,0,0,0,0,0,0,0,0,-0.001499313,0.001499313,-0.02348924,0.2463379,-0.9129639,-0.4168701,0,0,0,0,0,0
5.950041,-0.855685,0.7044476,1,0.4172379,0,0,0,0,0,0,0,0,0,0,0,0,0,0,-0.1389413,-0.0454808,-0.04473126,0.2268066,-0.9306641,-0.4211426,0,0,0,0,0,0
5.960042,-0.919205,0.6167826,1,0.4172379,0,0,0,0,0,0,0,0,0,0,0,0,0,0,-0.1854225,-0.08146629,-0.0584757,0.2884521,-0.8625488,-0.4317627,0,0,0,0,0,0
5.970042,-0.9731412,0.4965006,1,0.4172379,0,0,0,0,0,0,0,0,0,0,0,0,0,0,-0.08446549,-0.1192001,-0.06772181,0.3526611,-0.8139648,-0.4074707,0,0,0,0,0,0
5.980042,-0.9947569,0.408207,1,0.4172379,0,0,0,0,0,0,0,0,0,0,0,0,0,0,0.002787459,-0.1235296,-0.04354098,0.3571777,-0.8282471,-0.3636475,0,0,0,0,0,0
5.990042,-1,0.3444016,1,0.4172379,0,0,0,0,0,0,0,0,0,0,0,0,0,0,0.03898194,-0.1289409,-0.008246528,0.3031006,-0.8205566,-0.3891602,0,0,0,0,0,0
6.000042,-1,0.3202776,1,0.4172379,0,0,0,0,0,0,0,0,0,0,0,0,0,0,0.0419824,-0.1421908,0.005747632,0.25354,-0.8157959,-0.40979,0,0,0,0,0,0
6.010043,-1,0.2962267,1,0.4172379,0,0,0,0,0,0,0,0,0,0,0,0,0,0,0.01199451,-0.08346178,-0.001999084,0.2559814,-0.8144531,-0.4289551,0,0,0,0,0,0
6.020043,-1,0.2642672,1,0.4172379,0,0,0,0,0,0,0,0,0,0,0,0,0,0,0.01703193,-0.1992698,-0.03010383,0.2915039,-0.8085938,-0.409668,0,0,0,0,0,0
6.030043,-1,0.2244794,1,0.4172379,0,0,0,0,0,0,0,0,0,0,0,0,0,0,0.04947903,-0.2309036,-0.0517283,0.2868652,-0.8068848,-0.4053955,0,0,0,0,0,0
6.040043,-1,0.1927661,1,0.4416777,0,0,0,0,0,0,0,0,0,0,0,0,0,0,0.06122695,-0.116956,-0.03298758,0.2769775,-0.8060303,-0.4274902,0,0,0,0,0,0
6.050044,-1,0.1217254,1,0.5144897,0,0,0,0,0,0,0,0,0,0,0,0,0,0,0.1891713,-0.2209077,-0.06047469,0.269165,-0.8449707,-0.4401855,0,0,0,0,0,0
6.060044,-1,0.09026043,0.9612237,0.5863066,0,0,0,0,0,0,0,0,0,0,0,0,0,0,0.2061639,-0.198417,-0.04648048,0.2683105,-0.8702393,-0.4487305,0,0,0,0,0,0
6.070044,-1,0.06669273,0.8076617,0.6421895,0,0,0,0,0,0,0,0,0,0,0,0,0,0,0.1675054,-0.1544726,-0.03083297,0.2807617,-0.9180908,-0.4674072,0,0,0,0,0,0
6.080044,-1,0.05884144,0.6611916,0.6302587,0,0,0,0,0,0,0,0,0,0,0,0,0,0,0.04797802,-0.04897757,-0.01099496,0.2965088,-0.9371338,-0.4532471,0,0,0,0,0,0
6.090044,-1,0.05884144,0.5287135,0.4769513,0,0,0,0,0,0,0,0,0,0,0,0,0,0,0.105936,0.01473753,-0.07520448,0.2913818,-0.8804932,-0.491333,0,0,0,0,0,0
6.100045,-1,0.05884144,0.4890311,0.3533874,0,0,0,0,0,0,0,0,0,0,0,0,0,0,0.1984165,0.1381914,-0.1249474,0.2994385,-0.8800049,-0.482666,0,0,0,0,0,0
6.110045,-1,0.07454614,0.4735363,0.2315835,0,0,0,0,0,0,0,0,0,0,0,0,0,0,0.1584404,0.1481942,-0.1057102,0.3286133,-0.8671875,-0.4569092,0,0,0,0,0,0
6.120045,-1,0.1453634,0.4914137,0.1546407,0,0,0,0,0,0,0,0,0,0,0,0,0,0,0.3291487,0.4459822,-0.3179216,0.3723145,-0.9064941,-0.4155273,0,0,0,0,0,0
6.130045,-1,0.2244794,0.5343561,0.1292234,0,0,0,0,0,0,0,0,0,0,0,0,0,0,0.2769396,0.6029944,-0.4215712,0.4133301,-0.9078369,-0.3758545,0,0,0,0,0,0
6.140046,-1,0.3283107,0.6068965,0.1256886,0,0,0,0,0,0,0,0,0,0,0,0,0,0,0.1287015,0.4320873,-0.2756462,0.4212646,-0.8616943,-0.276123,0,0,0,0,0,0
6.150046,-1,0.4091095,0.6618024,0.1279729,0,0,0,0,0,0,0,0,0,0,0,0,0,0,0.2438578,0.9369103,-0.5711037,0.4274902,-0.8138428,-0.2041016,0,0,0,0,0,0
6.160046,-0.9831394,0.5134615,0.7718366,0.131777,0,0,0,0,0,0,0,0,0,0,0,0,0,0,0.3844478,1.70497,-0.9890694,0.4355469,-0.7764893,-0.1396484,0,0,0,0,0,0
6.170046,-0.9374622,0.6263045,0.9556375,0.1365197,0,0,0,0,0,0,0,0,0,0,0,0,0,0,0.3424114,1.409553,-0.8370854,0.40979,-0.7127686,-0.1987305,0,0,0,0,0,0
6.180047,-0.8975631,0.682148,1,0.1374799,0,0,0,0,0,0,0,0,0,0,0,0,0,0,0.2733971,0.7877035,-0.5005615,0.3793945,-0.6247559,-0.2088623,0,0,0,0,0,0
6.190047,-0.8818683,0.7062927,1,0.1374799,0,0,0,0,0,0,0,0,0,0,0,0,0,0,1.010635,2.287579,-1.528467,0.4866943,-0.6055908,-0.2086182,0,0,0,0,0,0
6.200047,-0.8581596,0.7384164,1,0.1927661,0,0,0,0,0,0,0,0,0,0,0,0,0,0,1.127076,1.346493,-0.9778818,0.5593262,-0.7285156,-0.1873779,0,0,0,0,0,0
6.210047,-0.8587738,0.7469335,1,0.2483314,0,0,0,0,0,0,0,0,0,0,0,0,0,0,1.235929,1.118132,-0.8390067,0.6776123,-0.8342285,-0.2668457,0,0,0,0,0,0
6.220047,-0.8507007,0.7548471,1,0.3122526,0,0,0,0,0,0,0,0,0,0,0,0,0,0,1.215742,0.8711351,-0.7461878,0.6445313,-1.130737,-0.2338867,0,0,0,0,0,0
6.230048,-0.8513149,0.7633857,1,0.3605264,0,0,0,0,0,0,0,0,0,0,0,0,0,0,0.8739762,0.605263,-0.5627423,0.5865479,-1.239624,-0.1499023,0,0,0,0,0,0
6.240048,-0.8513149,0.7633857,1,0.3686016,0,0,0,0,0,0,0,0,0,0,0,0,0,0,0.6359782,0.470799,-0.4529413,0.5511475,-1.245239,-0.1589355,0,0,0,0,0,0
6.250048,-0.8513149,0.7633857,1,0.4009901,0,0,0,0,0,0,0,0,0,0,0,0,0,0,0.3768214,0.3118488,-0.2910308,0.5187988,-1.174438,-0.144165,0,0,0,0,0,0
6.260048,-0.851927,0.7719339,1,0.4416777,0,0,0,0,0,0,0,0,0,0,0,0,0,0,0.09921265,0.09271508,-0.06497554,0.4901123,-1.112793,-0.1552734,0,0,0,0,0,0
6.270049,-0.8513149,0.7633857,1,0.5309846,0,0,0,0,0,0,0,0,0,0,0,0,0,0,0.02275879,0.05709057,0.03781158,0.4493408,-1.005005,-0.1573486,0,0,0,0,0,0
6.280049,-0.851927,0.7719339,0.9634567,0.6196507,0,0,0,0,0,0,0,0,0,0,0,0,0,0,-0.08258317,-0.02975762,0.08811947,0.4550781,-0.9377441,-0.1223145,0,0,0,0,0,0
6.290049,-0.851927,0.7719339,0.8352143,0.779267,0,0,0,0,0,0,0,0,0,0,0,0,0,0,-0.3650572,-0.194399,0.3206339,0.4946289,-0.828125,-0.1154785,0,0,0,0,0,0
6.300049,-0.8525369,0.7804915,0.7080969,0.9081243,0,0,0,0,0,0,0,0,0,0,0,0,0,0,-0.4402547,-0.3013135,0.4444448,0.5219727,-0.7841797,-0.09436035,0,0,0,0,0,0
6.31005,-0.8284124,0.8044004,0.5309846,1,0,0,0,0,0,0,0,0,0,0,0,0,0,0,-0.2363917,-0.2184,0.303611,0.5189209,-0.7503662,-0.09008789,0,0,0,0,0,0
6.32005,-0.772543,0.8606049,0.336352,1,0,0,0,0,0,0,0,0,0,0,0,0,0,0,-0.3967742,-0.5268713,0.6862267,0.5401611,-0.6751709,-0.0793457,0,0,0,0,0,0
6.33005,-0.7731484,0.8692912,0.2642672,1,0,0,0,0,0,0,0,0,0,0,0,0,0,0,-0.2773813,-0.6131243,0.7432225,0.5406494,-0.661499,-0.05725098,0,0,0,0,0,0
6.34005,-0.8056167,0.8456972,0.2086106,1,0,0,0,0,0,0,0,0,0,0,0,0,0,0,-0.1473223,-0.7268634,0.7504885,0.4683838,-0.65979,-0.006591797,0,0,0,0,0,0
6.35005,-0.8531445,0.7890585,0.1690417,1,0,0,0,0,0,0,0,0,0,0,0,0,0,0,-0.09255623,-0.7933553,0.73042,0.4431152,-0.6785889,-0.03979492,0,0,0,0,0,0
6.360051,-0.9099035,0.7335345,0.1611441,1,0,0,0,0,0,0,0,0,0,0,0,0,0,0,0.01799176,-0.4422974,0.3895716,0.4122314,-0.6837158,-0.0345459,0,0,0,0,0,0
6.370051,-0.9728824,0.6285701,0.1532514,1,0,0,0,0,0,0,0,0,0,0,0,0,0,0,0.1696797,-0.8763841,0.7951682,0.3964844,-0.7202148,0.0513916,0,0,0,0,0,0
6.380051,-1,0.5480344,0.1690417,1,0,0,0,0,0,0,0,0,0,0,0,0,0,0,0.2179268,-0.7970074,0.7592347,0.4467773,-0.8355713,0.1369629,0,0,0,0,0,0
6.390051,-1,0.4662001,0.2562958,1,0,0,0,0,0,0,0,0,0,0,0,0,0,0,0.05974592,-0.3534006,0.3614744,0.460083,-0.8728027,0.1815186,0,0,0,0,0,0
6.400052,-1,0.4091095,0.4172379,1,0,0,0,0,0,0,0,0,0,0,0,0,0,0,-0.0160695,-0.6375754,0.7357257,0.4321289,-0.9304199,0.1558838,0,0,0,0,0,0
6.410052,-1,0.3766855,0.523744,1,0,0,0,0,0,0,0,0,0,0,0,0,0,0,-0.08394517,-0.5562627,0.6688302,0.4101563,-0.9013672,0.06591797,0,0,0,0,0,0
6.420052,-1,0.3605264,0.6218509,0.9989735,0,0,0,0,0,0,0,0,0,0,0,0,0,0,-0.01849153,-0.2633794,0.2858691,0.3466797,-0.8764648,-0.03588867,0,0,0,0,0,0
6.430052,-1,0.3283107,0.6941094,0.9508898,0,0,0,0,0,0,0,0,0,0,0,0,0,0,0.02499059,-0.2556537,0.2414091,0.2818604,-0.8812256,-0.06933594,0,0,0,0,0,0
6.440053,-1,0.2642672,0.7505404,0.9110838,0,0,0,0,0,0,0,0,0,0,0,0,0,0,0.06938005,-0.4832776,0.3539557,0.260498,-0.9348145,-0.06945801,0,0,0,0,0,0
6.450053,-1,0.1848525,0.7743478,0.8866885,0,0,0,0,0,0,0,0,0,0,0,0,0,0,0.01314872,-0.2249123,0.1061125,0.2713623,-0.9447021,-0.1004639,0,0,0,0,0,0
6.460053,-1,0.035298,0.7817017,0.8698937,0,0,0,0,0,0,0,0,0,0,0,0,0,0,0.01397479,-0.4273953,0.1080699,0.3024902,-0.9282227,-0.137085,0,0,0,0,0,0
6.470053,-1,-0.1217254,0.7896631,0.861815,0,0,0,0,0,0,0,0,0,0,0,0,0,0,0.01316741,-0.3759165,0.04265448,0.3389893,-0.9465332,-0.1474609,0,0,0,0,0,0
6.480053,-1,-0.2642672,0.8062198,0.8543524,0,0,0,0,0,0,0,0,0,0,0,0,0,0,0.0005189774,-0.3262076,0.0009421268,0.3719482,-0.9187012,-0.1812744,0,0,0,0,0,0
6.490054,-0.9531286,-0.4627222,0.8050102,0.8370504,0,0,0,0,0,0,0,0,0,0,0,0,0,0,0.008996612,-0.1376982,-0.02424087,0.371582,-0.9863281,-0.2231445,0,0,0,0,0,0
6.500054,-0.7735841,-0.7577157,0.8136096,0.8376572,0,0,0,0,0,0,0,0,0,0,0,0,0,0,-0.1032814,-0.2100264,-0.05513053,0.4082031,-1.130249,-0.1849365,0,0,0,0,0,0
6.510054,-0.6712689,-0.8619251,0.8136096,0.8376572,0,0,0,0,0,0,0,0,0,0,0,0,0,0,-0.2949908,-0.1561447,-0.03686884,0.3753662,-1.120361,-0.2116699,0,0,0,0,0,0
6.520054,-0.5929316,-0.9351605,0.8050102,0.8370504,0,0,0,0,0,0,0,0,0,0,0,0,0,0,-0.2168385,-0.04175295,-0.009457849,0.3734131,-1.119629,-0.2434082,0,0,0,0,0,0
6.530055,-0.4662001,-1,0.6705309,0.7411131,0,0,0,0,0,0,0,0,0,0,0,0,0,0,-0.4393505,-0.05030563,-0.02387457,0.428833,-0.9304199,-0.3894043,0,0,0,0,0,0
6.540055,-0.3847782,-1,0.4878849,0.4805483,0,0,0,0,0,0,0,0,0,0,0,0,0,0,-0.2657792,-0.05681954,-0.02391186,0.4320068,-0.9348145,-0.3988037,0,0,0,0,0,0
6.550055,-0.2962267,-1,0.3695594,0.2696785,0,0,0,0,0,0,0,0,0,0,0,0,0,0,-0.04598268,0.0002499059,0.01224539,0.4086914,-0.9855957,-0.348877,0,0,0,0,0,0
6.560055,-0.1532514,-1,0.3037105,0.07371613,0,0,0,0,0,0,0,0,0,0,0,0,0,0,0.05449827,0.1089005,0.0788736,0.4379883,-0.9875488,-0.2659912,0,0,0,0,0,0
6.570055,0,-1,0.308919,-0.03236294,0,0,0,0,0,0,0,0,0,0,0,0,0,0,0.1086463,0.2062781,0.09961157,0.4294434,-0.9837646,-0.269165,0,0,0,0,0,0
6.580056,0.113854,-1,0.399628,-0.19486,0,0,0,0,0,0,0,0,0,0,0,0,0,0,0.1767591,0.28887,0.1125915,0.3986816,-0.9708252,-0.307373,0,0,0,0,0,0
6.590056,0.2086106,-1,0.5175363,-0.4514678,0,0,0,0,0,0,0,0,0,0,0,0,0,0,0.08949565,0.1630758,0.05235957,0.2663574,-1.06189,-0.2252197,0,0,0,0,0,0
6.600056,0.3444016,-1,0.6260661,-0.8150671,0,0,0,0,0,0,0,0,0,0,0,0,0,0,0.01622437,0.3393174,0.04219387,0.3757324,-1.040527,-0.3057861,0,0,0,0,0,0
6.610056,0.4580168,-1,0.6400992,-0.8945485,0,0,0,0,0,0,0,0,0,0,0,0,0,0,-0.1019587,0.3266135,0.00499765,0.2514648,-1.096313,-0.229248,0,0,0,0,0,0
6.620057,0.5812241,-1,0.648488,-0.8951521,0,0,0,0,0,0,0,0,0,0,0,0,0,0,-0.1077094,0.130201,-0.02049228,0.3238525,-0.9958496,-0.3977051,0,0,0,0,0,0
6.630057,0.7008187,-0.9250807,0.648488,-0.8951521,0,0,0,0,0,0,0,0,0,0,0,0,0,0,-0.07697102,0.1139571,-0.03773579,0.3161621,-0.9753418,-0.4418945,0,0,0,0,0,0
6.640057,0.8662497,-0.7305239,0.648488,-0.8951521,0,0,0,0,0,0,0,0,0,0,0,0,0,0,-0.06242858,0.2259991,-0.09314872,0.3265381,-0.9810791,-0.4550781,0,0,0,0,0,0
6.650057,0.9736622,-0.5047147,0.648488,-0.8951521,0,0,0,0,0,0,0,0,0,0,0,0,0,0,0.001153396,0.1174157,-0.05351758,0.3710938,-0.9727783,-0.4742432,0,0,0,0,0,0
6.660058,1,-0.113854,0.649089,-0.9039459,0,0,0,0,0,0,0,0,0,0,0,0,0,0,0.04934481,0.2687897,-0.134962,0.3562012,-0.977417,-0.5238037,0,0,0,0,0,0
6.670058,1,0.2006854,0.6335082,-0.9203799,0,0,0,0,0,0,0,0,0,0,0,0,0,0,0.1106885,0.3013369,-0.1669092,0.3106689,-0.991333,-0.5478516,0,0,0,0,0,0
6.680058,1,0.4091095,0.5774385,-0.9517779,0,0,0,0,0,0,0,0,0,0,0,0,0,0,0.116956,0.1641882,-0.09121566,0.244873,-1.014648,-0.5491943,0,0,0,0,0,0
6.690058,0.995759,0.5718616,0.4575411,-1,0,0,0,0,0,0,0,0,0,0,0,0,0,0,0.2779586,0.3205175,-0.1711966,0.2728271,-1.090454,-0.432251,0,0,0,0,0,0
6.700058,0.9562932,0.6441975,0.3283107,-1,0,0,0,0,0,0,0,0,0,0,0,0,0,0,0.2629071,0.3274761,-0.1545304,0.3065186,-1.09082,-0.3121338,0,0,0,0,0,0
6.710059,0.9005606,0.7244509,0.1532514,-1,0,0,0,0,0,0,0,0,0,0,0,0,0,0,0.09734664,0.1621675,-0.08765811,0.317749,-1.072144,-0.2392578,0,0,0,0,0,0
6.720059,0.8525369,0.7804915,-0.09812176,-1,0,0,0,0,0,0,0,0,0,0,0,0,0,0,0.1879214,0.3388585,-0.2831326,0.3123779,-1.046631,-0.1253662,0,0,0,0,0,0
6.730059,0.8044004,0.8284124,-0.2802319,-1,0,0,0,0,0,0,0,0,0,0,0,0,0,0,0.1451835,0.314356,-0.4028155,0.3358154,-1.060547,0.002441406,0,0,0,0,0,0
6.740059,0.7487553,0.8848926,-0.4412105,-1,0,0,0,0,0,0,0,0,0,0,0,0,0,0,0.01399359,0.1366874,-0.2766233,0.319458,-1.098999,0.05297852,0,0,0,0,0,0
6.75006,0.6280115,0.9640176,-0.6006819,-0.9268799,0,0,0,0,0,0,0,0,0,0,0,0,0,0,-0.1294821,0.1903043,-0.5775237,0.298584,-1.152344,0.02111816,0,0,0,0,0,0
6.76006,0.531496,1,-0.6803213,-0.8712887,0,0,0,0,0,0,0,0,0,0,0,0,0,0,-0.272923,0.108415,-0.5115126,0.2641602,-1.145752,-0.008544922,0,0,0,0,0,0
6.77006,0.4416777,1,-0.7498012,-0.7815388,0,0,0,0,0,0,0,0,0,0,0,0,0,0,-0.1919251,0.009227169,-0.170472,0.2416992,-1.123291,-0.007446289,0,0,0,0,0,0
6.78006,0.3283107,1,-0.6362051,-0.3683293,0,0,0,0,0,0,0,0,0,0,0,0,0,0,-0.516035,-0.09146255,-0.223156,0.2854004,-0.9094238,-0.04223633,0,0,0,0,0,0
6.790061,0.2086106,1,0,0,0,0,0,0,0,0,0,0,0,0,0,0,0,0,-0.5182626,-0.2004082,-0.08446132,0.2133789,-0.7010498,-0.05554199,0,0,0,0,0,0
6.800061,0.09026043,1,0,0,0,0,0,0,0,0,0,0,0,0,0,0,0,0,-0.5230105,-0.277373,0.08321189,0.3564453,-0.8243408,-0.03686523,0,0,0,0,0,0
6.810061,0,1,0,0,0,0,0,0,0,0,0,0,0,0,0,0,0,0,-0.2429086,-0.1821814,0.1349492,0.277832,-0.7678223,-0.0892334,0,0,0,0,0,0
6.820061,-0.1217254,1,0,0,0,0,0,0,0,0,0,0,0,0,0,0,0,0,-0.4530768,-0.4418893,0.4003879,0.2156982,-0.7751465,-0.04272461,0,0,0,0,0,0
6.830061,-0.2802319,1,0,0,0,0,0,0,0,0,0,0,0,0,0,0,0,0,-0.5861537,-0.5379052,0.4960387,0.2376709,-0.7541504,-0.1080322,0,0,0,0,0,0
6.840062,-0.4091095,1,0,0,0,0,0,0,0,0,0,0,0,0,0,0,0,0,-0.361114,-0.3438705,0.2763959,0.300415,-0.6845703,-0.1989746,0,0,0,0,0,0
6.850062,-0.5718616,0.995759,-0.04007879,0.09932569,0,0,0,0,0,0,0,0,0,0,0,0,0,0,-0.7612342,-0.7564862,0.6156041,0.2628174,-0.7645264,-0.1641846,0,0,0,0,0,0
6.860062,-0.7238518,0.8918174,-0.1801385,0.5474799,0,0,0,0,0,0,0,0,0,0,0,0,0,0,-0.4290884,-0.4895657,0.4348363,0.2440186,-0.7845459,-0.2513428,0,0,0,0,0,0
6.870062,-0.8284124,0.8044004,-0.2532092,0.9232396,0,0,0,0,0,0,0,0,0,0,0,0,0,0,-0.8397198,-1.064183,0.9448678,0.263916,-0.8619385,-0.3439941,0,0,0,0,0,0
6.880063,-0.892418,0.7323431,-0.2802319,1,0,0,0,0,0,0,0,0,0,0,0,0,0,0,-0.3801594,-0.5886934,0.514184,0.3369141,-0.8356934,-0.5740967,0,0,0,0,0,0
6.890063,-0.9712184,0.6035143,-0.2802319,1,0,0,0,0,0,0,0,0,0,0,0,0,0,0,-0.6929607,-1.387922,1.264223,0.2312012,-0.9085693,-0.4881592,0,0,0,0,0,0
6.900063,-1,0.4908059,-0.2802319,1,0,0,0,0,0,0,0,0,0,0,0,0,0,0,-0.691655,-1.471016,1.274365,0.227417,-0.8779297,-0.4768066,0,0,0,0,0,0
6.910063,-1,0.3202776,-0.2802319,1,0,0,0,0,0,0,0,0,0,0,0,0,0,0,-0.6024039,-1.503232,1.178222,0.2264404,-0.8433838,-0.4190674,0,0,0,0,0,0
6.920063,-1,0.2165419,-0.2802319,1,0,0,0,0,0,0,0,0,0,0,0,0,0,0,-0.5847183,-1.531183,1.116592,0.1700439,-0.8436279,-0.3166504,0,0,0,0,0,0
6.930064,-1,0.1217254,-0.2802319,1,0,0,0,0,0,0,0,0,0,0,0,0,0,0,-0.2562846,-0.7211033,0.4927309,0.0826416,-0.8591309,-0.3153076,0,0,0,0,0,0
6.940064,-1,0.07454614,-0.2802319,1,0,0,0,0,0,0,0,0,0,0,0,0,0,0,-0.2283724,-0.6991888,0.4567449,0.03112793,-0.8447266,-0.3457031,0,0,0,0,0,0
6.950064,-1,0.035298,-0.2802319,1,0,0,0,0,0,0,0,0,0,0,0,0,0,0,-0.3663464,-1.425155,0.9198657,-0.07128906,-0.8093262,-0.3964844,0,0,0,0,0,0
6.960064,-1,0.02745281,-0.2802319,1,0,0,0,0,0,0,0,0,0,0,0,0,0,0,-0.1437132,-0.6378281,0.4122238,-0.1048584,-0.8024902,-0.3903809,0,0,0,0,0,0
6.970065,-1,-0.09026043,-0.2562958,1,0,0,0,0,0,0,0,0,0,0,0,0,0,0,-0.2124112,-1.213993,0.8219066,-0.1870117,-0.8336182,-0.3845215,0,0,0,0,0,0
6.980065,-1,-0.2165419,-0.1769445,1,0,0,0,0,0,0,0,0,0,0,0,0,0,0,-0.1057102,-0.5407963,0.3776078,-0.1843262,-0.8442383,-0.3695068,0,0,0,0,0,0
6.990065,-0.9800786,-0.4642477,-0.04314433,1,0,0,0,0,0,0,0,0,0,0,0,0,0,0,-0.2187916,-0.8915623,0.6455904,-0.2183838,-0.8461914,-0.3439941,0,0,0,0,0,0
7.000065,-0.8531865,-0.6706443,0.08240198,1,0,0,0,0,0,0,0,0,0,0,0,0,0,0,-0.2767208,-0.7703396,0.5764908,-0.2485352,-0.8493652,-0.3203125,0,0,0,0,0,0
7.010066,-0.6640815,-0.8788145,0.2802319,1,0,0,0,0,0,0,0,0,0,0,0,0,0,0,-0.4003331,-0.6559756,0.4563088,-0.3062744,-0.7354736,-0.3581543,0,0,0,0,0,0
7.020066,-0.5365938,-0.9579193,0.4091095,1,0,0,0,0,0,0,0,0,0,0,0,0,0,0,-0.1721571,-0.2588603,0.1664102,-0.3470459,-0.6694336,-0.3876953,0,0,0,0,0,0
7.030066,-0.4498426,-1,0.523744,1,0,0,0,0,0,0,0,0,0,0,0,0,0,0,-0.2534607,-0.3575747,0.2539412,-0.307373,-0.6491699,-0.4066162,0,0,0,0,0,0
7.040066,-0.3766855,-1,0.5884867,0.9968243,0,0,0,0,0,0,0,0,0,0,0,0,0,0,-0.1949559,-0.2386879,0.2319591,-0.2888184,-0.6108398,-0.3970947,0,0,0,0,0,0
7.050066,-0.2962267,-1,0.6441975,0.9562932,0,0,0,0,0,0,0,0,0,0,0,0,0,0,-0.07543211,-0.04475177,0.09711596,-0.2884521,-0.6147461,-0.3961182,0,0,0,0,0,0
7.060067,-0.1927661,-1,0.7244509,0.9005606,0,0,0,0,0,0,0,0,0,0,0,0,0,0,-0.09570965,-0.005247454,0.1636815,-0.2911377,-0.6329346,-0.4190674,0,0,0,0,0,0
7.070067,-0.1374799,-1,0.763997,0.8599966,0,0,0,0,0,0,0,0,0,0,0,0,0,0,-0.05622639,0.03023748,0.136443,-0.3059082,-0.6431885,-0.4675293,0,0,0,0,0,0
7.080067,-0.09026043,-1,0.8111632,0.8031714,0,0,0,0,0,0,0,0,0,0,0,0,0,0,-0.0007496566,0.004248055,0.07971349,-0.2694092,-0.6461182,-0.6000977,0,0,0,0,0,0
7.090067,-0.01960851,-1,0.888797,0.6815439,0,0,0,0,0,0,0,0,0,0,0,0,0,0,0.1318147,-0.0729335,0.2345255,-0.2518311,-0.6513672,-0.6677246,0,0,0,0,0,0
7.100068,0.035298,-1,0.9295025,0.5102376,0,0,0,0,0,0,0,0,0,0,0,0,0,0,0.1448538,-0.1017206,0.1598466,-0.2753906,-0.6740723,-0.6574707,0,0,0,0,0,0
7.110068,0.1059862,-1,0.9780402,0.2553117,0,0,0,0,0,0,0,0,0,0,0,0,0,0,0.4415618,-0.3554057,0.4403122,-0.322876,-0.7486572,-0.5716553,0,0,0,0,0,0
7.120068,0.1690417,-1,0.9916281,0.09798697,0,0,0,0,0,0,0,0,0,0,0,0,0,0,0.4235727,-0.5610171,0.5440235,-0.44104,-0.7949219,-0.4818115,0,0,0,0,0,0
7.130068,0.2324234,-1,0.9907852,0.01174844,0,0,0,0,0,0,0,0,0,0,0,0,0,0,0.1634385,-0.3548664,0.3096334,-0.5603027,-0.8094482,-0.5197754,0,0,0,0,0,0
7.140069,0.3042357,-1,0.9907852,-0.01174844,0,0,0,0,0,0,0,0,0,0,0,0,0,0,0.2167546,-0.8180358,0.6675234,-0.6303711,-0.8131104,-0.5092773,0,0,0,0,0,0
7.150069,0.336352,-1,0.935411,-0.003881374,0,0,0,0,0,0,0,0,0,0,0,0,0,0,0.1343473,-0.8995782,0.7023163,-0.5909424,-0.793335,-0.4969482,0,0,0,0,0,0
7.160069,0.3605264,-1,0.8436571,0.0648967,0,0,0,0,0,0,0,0,0,0,0,0,0,0,0.05513234,-0.4696629,0.3499404,-0.6812744,-0.7349854,-0.5318604,0,0,0,0,0,0
7.170069,0.3605264,-1,0.6503556,0.2314825,0,0,0,0,0,0,0,0,0,0,0,0,0,0,0.220446,-1.005149,0.7218465,-0.6859131,-0.6699219,-0.5500488,0,0,0,0,0,0
7.180069,0.3605264,-1,0.5080197,0.3711066,0,0,0,0,0,0,0,0,0,0,0,0,0,0,0.4465619,-1.010079,0.6654733,-0.7384033,-0.680542,-0.5906982,0,0,0,0,0,0
7.19007,0.3605264,-1,0.4019915,0.5033947,0,0,0,0,0,0,0,0,0,0,0,0,0,0,0.3898532,-0.4085962,0.2331622,-0.7435303,-0.78479,-0.6605225,0,0,0,0,0,0
7.20007,0.3605264,-1,0.2758285,0.6362444,0,0,0,0,0,0,0,0,0,0,0,0,0,0,0.7673288,-0.5579568,0.2602559,-0.8737793,-1.039673,-0.62854,0,0,0,0,0,0
7.21007,0.3605264,-1,0.1542216,0.7635851,0,0,0,0,0,0,0,0,0,0,0,0,0,0,0.4611916,-0.3312069,0.1078207,-0.8684082,-1.052612,-0.6516113,0,0,0,0,0,0
7.22007,0.433522,-1,0.003869015,0.9169565,0,0,0,0,0,0,0,0,0,0,0,0,0,0,0.001153396,-0.04083022,-0.02952694,-0.8277588,-0.9390869,-0.5899658,0,0,0,0,0,0
7.230071,0.6207611,-0.981203,-0.1848525,1,0,0,0,0,0,0,0,0,0,0,0,0,0,0,-0.2449536,0.1356552,-0.2019341,-0.7078857,-0.6746826,-0.5800781,0,0,0,0,0,0
7.240071,0.7798811,-0.8438712,-0.2882255,1,0,0,0,0,0,0,0,0,0,0,0,0,0,0,-0.2398901,0.312107,-0.2546334,-0.6878662,-0.6876221,-0.4281006,0,0,0,0,0,0
7.250071,0.919205,-0.6167826,-0.3524597,1,0,0,0,0,0,0,0,0,0,0,0,0,0,0,-0.114207,0.2471569,-0.140697,-0.6699219,-0.6947021,-0.3293457,0,0,0,0,0,0
7.260071,0.9922551,-0.1294246,-0.4009901,1,0,0,0,0,0,0,0,0,0,0,0,0,0,0,-0.2382549,0.6228959,-0.3328532,-0.6345215,-0.6741943,-0.2597656,0,0,0,0,0,0
7.270072,0.8961046,0.4108776,-0.4416777,1,0,0,0,0,0,0,0,0,0,0,0,0,0,0,-0.2461454,0.7156948,-0.3970807,-0.5695801,-0.6750488,-0.2659912,0,0,0,0,0,0
7.280072,0.7250457,0.9093114,-0.4739094,1,0,0,0,0,0,0,0,0,0,0,0,0,0,0,-0.0922717,0.3974603,-0.2163771,-0.5802002,-0.5255127,-0.3813477,0,0,0,0,0,0
7.290072,0.523744,1,-0.5294175,0.9752428,0,0,0,0,0,0,0,0,0,0,0,0,0,0,0.05336108,0.9469813,-0.5707179,-0.5759277,-0.5722656,-0.3609619,0,0,0,0,0,0
7.300072,0.4091095,1,-0.5691394,0.9512189,0,0,0,0,0,0,0,0,0,0,0,0,0,0,0.09520346,1.035233,-0.7526214,-0.4572754,-0.6690674,-0.2531738,0,0,0,0,0,0
7.310072,0.3042357,1,-0.5923551,0.9263003,0,0,0,0,0,0,0,0,0,0,0,0,0,0,0.001249428,0.5357546,-0.4730333,-0.3917236,-0.7144775,-0.1765137,0,0,0,0,0,0
7.320073,0.2006854,1,-0.5926555,0.8124482,0,0,0,0,0,0,0,0,0,0,0,0,0,0,0.01199548,0.547044,-0.5253022,-0.3522949,-0.6379395,-0.1888428,0,0,0,0,0,0
7.330073,0.07454614,1,-0.5609584,0.545899,0,0,0,0,0,0,0,0,0,0,0,0,0,0,0.1570997,1.069482,-1.068194,-0.3374023,-0.6591797,-0.1933594,0,0,0,0,0,0
7.340073,-0.01960851,1,-0.4127225,0.2831072,0,0,0,0,0,0,0,0,0,0,0,0,0,0,0.199377,1.067699,-1.038115,-0.3062744,-0.7391357,-0.25354,0,0,0,0,0,0
7.350073,-0.1296006,1,-0.1217032,0.03670416,0,0,0,0,0,0,0,0,0,0,0,0,0,0,0.1141862,0.4938842,-0.3949229,-0.2926025,-0.8360596,-0.3286133,0,0,0,0,0,0
7.360074,-0.2722459,1,0,0,0,0,0,0,0,0,0,0,0,0,0,0,0,0,0.0484778,0.4970224,-0.3193537,-0.3835449,-0.9466553,-0.282959,0,0,0,0,0,0
7.370074,-0.433522,1,0.1140194,-0.2094775,0,0,0,0,0,0,0,0,0,0,0,0,0,0,-0.06197426,0.8011671,-0.3890895,-0.2276611,-0.8800049,-0.5523682,0,0,0,0,0,0
7.380074,-0.4662001,1,0.2640556,-0.5034659,0,0,0,0,0,0,0,0,0,0,0,0,0,0,0.04248337,0.5847547,-0.1309438,-0.4304199,-0.9041748,-0.6450195,0,0,0,0,0,0
7.390074,-0.4908059,1,0.4206619,-0.7988716,0,0,0,0,0,0,0,0,0,0,0,0,0,0,0.1541859,0.3928346,0.0314877,-0.4542236,-1.03125,-0.6502686,0,0,0,0,0,0
7.400074,-0.5723898,1,0.6112997,-0.9628969,0,0,0,0,0,0,0,0,0,0,0,0,0,0,0.009344585,0.09225103,0.1272919,-0.461792,-1.132813,-0.5406494,0,0,0,0,0,0
7.410075,-0.6291237,0.9817535,0.7396386,-0.8755721,0,0,0,0,0,0,0,0,0,0,0,0,0,0,-0.2421501,-0.1669322,0.1271968,-0.4309082,-1.047119,-0.6901855,0,0,0,0,0,0
7.420075,-0.6609865,0.957429,0.8191673,-0.7951917,0,0,0,0,0,0,0,0,0,0,0,0,0,0,-0.1749199,-0.2231478,0.06746911,-0.4772949,-0.9351807,-0.7392578,0,0,0,0,0,0
7.430075,-0.7329409,0.9011568,0.8818683,-0.7062927,0,0,0,0,0,0,0,0,0,0,0,0,0,0,-0.3653327,-0.6816878,0.1719213,-0.5458984,-0.8391113,-0.75354,0,0,0,0,0,0
7.440075,-0.8056167,0.8456972,0.9121541,-0.6412961,0,0,0,0,0,0,0,0,0,0,0,0,0,0,-0.3086219,-0.8603899,0.2161594,-0.5784912,-0.7683105,-0.7719727,0,0,0,0,0,0
7.450076,-0.8779858,0.77375,0.965771,-0.520642,0,0,0,0,0,0,0,0,0,0,0,0,0,0,-0.09346481,-0.5165555,0.1516929,-0.5491943,-0.7159424,-0.7128906,0,0,0,0,0,0
7.460076,-0.9409287,0.6766679,1,-0.3605264,0,0,0,0,0,0,0,0,0,0,0,0,0,0,-0.06497554,-0.5805314,0.1761837,-0.5211182,-0.6829834,-0.6126709,0,0,0,0,0,0
7.470076,-1,0.4990265,1,-0.07454614,0,0,0,0,0,0,0,0,0,0,0,0,0,0,-0.05597605,-1.269471,0.3436064,-0.4753418,-0.6496582,-0.529541,0,0,0,0,0,0
7.480076,-1,0.2962267,1,0.1927661,0,0,0,0,0,0,0,0,0,0,0,0,0,0,0.03087098,-1.275457,0.292818,-0.4484863,-0.645752,-0.5053711,0,0,0,0,0,0
7.490077,-1,0.06669273,1,0.4172379,0,0,0,0,0,0,0,0,0,0,0,0,0,0,0.0812128,-0.6754407,0.126692,-0.3961182,-0.6484375,-0.4667969,0,0,0,0,0,0
7.500077,-1,-0.2483314,0.9221439,0.6586743,0,0,0,0,0,0,0,0,0,0,0,0,0,0,0.2154358,-1.316861,0.2194349,-0.3718262,-0.7590332,-0.3255615,0,0,0,0,0,0
7.510077,-1,-0.3924417,0.8185484,0.7866051,0,0,0,0,0,0,0,0,0,0,0,0,0,0,0.1611687,-1.23888,0.2073967,-0.329834,-0.762085,-0.3254395,0,0,0,0,0,0
7.520077,-0.9710904,-0.4637452,0.7390295,0.8668616,0,0,0,0,0,0,0,0,0,0,0,0,0,0,0.07722092,-0.539047,0.1192051,-0.3421631,-0.7520752,-0.3181152,0,0,0,0,0,0
7.530077,-0.9552274,-0.4954499,0.6592598,0.9309547,0,0,0,0,0,0,0,0,0,0,0,0,0,0,0.2166592,-0.8616418,0.3211154,-0.3364258,-0.7540283,-0.2946777,0,0,0,0,0,0
7.540078,-0.9557601,-0.5036578,0.6274477,0.9551592,0,0,0,0,0,0,0,0,0,0,0,0,0,0,0.253642,-0.6436696,0.3992719,-0.3477783,-0.7746582,-0.2994385,0,0,0,0,0,0
7.550078,-0.9557601,-0.5036578,0.5957312,0.979558,0,0,0,0,0,0,0,0,0,0,0,0,0,0,0.1254425,-0.2353922,0.2626297,-0.3546143,-0.784668,-0.324585,0,0,0,0,0,0
7.560078,-0.9557601,-0.5036578,0.531496,1,0,0,0,0,0,0,0,0,0,0,0,0,0,0,0.1739269,-0.3136183,0.6089963,-0.3719482,-0.784668,-0.340332,0,0,0,0,0,0
7.570078,-0.9546975,-0.4872523,0.4172379,1,0,0,0,0,0,0,0,0,0,0,0,0,0,0,0.09197994,-0.165679,0.6230235,-0.3973389,-0.7705078,-0.3204346,0,0,0,0,0,0
7.580079,-0.998794,-0.3118764,0.2562958,1,0,0,0,0,0,0,0,0,0,0,0,0,0,0,0.1198739,-0.09419347,0.9242765,-0.4083252,-0.7213135,-0.3137207,0,0,0,0,0,0
7.590079,-1,-0.1296006,0.113854,1,0,0,0,0,0,0,0,0,0,0,0,0,0,0,0.1274416,0.04123111,0.5914791,-0.4210205,-0.7077637,-0.3399658,0,0,0,0,0,0
7.600079,-1,0.07454614,-0.04314433,1,0,0,0,0,0,0,0,0,0,0,0,0,0,0,0.09420685,0.07546544,0.253384,-0.4729004,-0.7020264,-0.3186035,0,0,0,0,0,0
7.610079,-1,0.2642672,-0.1690417,1,0,0,0,0,0,0,0,0,0,0,0,0,0,0,0.1119578,0.1252028,0.21242,-0.4997559,-0.7297363,-0.3043213,0,0,0,0,0,0
7.62008,-1,0.4412105,-0.3202776,1,0,0,0,0,0,0,0,0,0,0,0,0,0,0,0.1907271,0.3700725,0.3261312,-0.5610352,-0.7850342,-0.2768555,0,0,0,0,0,0
7.63008,-0.9836607,0.5216986,-0.4253754,1,0,0,0,0,0,0,0,0,0,0,0,0,0,0,0.07137266,0.4837563,0.2234236,-0.5877686,-0.8648682,-0.262085,0,0,0,0,0,0
7.64008,-0.9690174,0.5702448,-0.5134615,0.9831394,0,0,0,0,0,0,0,0,0,0,0,0,0,0,-0.04290634,0.2807366,0.04429041,-0.5838623,-0.8973389,-0.2902832,0,0,0,0,0,0
7.65008,-0.9457361,0.6185194,-0.6012593,0.9357346,0,0,0,0,0,0,0,0,0,0,0,0,0,0,-0.2251565,0.6844648,-0.07322054,-0.5861816,-0.7904053,-0.2756348,0,0,0,0,0,0
7.66008,-0.9391946,0.6514414,-0.6731127,0.8881902,0,0,0,0,0,0,0,0,0,0,0,0,0,0,-0.2328938,0.728416,-0.2213968,-0.5869141,-0.723877,-0.3115234,0,0,0,0,0,0
7.670081,-0.9321206,0.6760875,-0.7529836,0.8246963,0,0,0,0,0,0,0,0,0,0,0,0,0,0,-0.08596763,0.3766082,-0.1694362,-0.6119385,-0.7183838,-0.3557129,0,0,0,0,0,0
7.680081,-0.9250807,0.7008187,-0.8414034,0.7456988,0,0,0,0,0,0,0,0,0,0,0,0,0,0,-0.08750159,0.7214432,-0.3579823,-0.6168213,-0.7958984,-0.4147949,0,0,0,0,0,0
7.690081,-0.9174812,0.7171578,-0.8712887,0.6803213,0,0,0,0,0,0,0,0,0,0,0,0,0,0,-0.0959019,0.6816903,-0.3590203,-0.6091309,-0.8967285,-0.4245605,0,0,0,0,0,0
7.700081,-0.9017519,0.7414404,-0.9115608,0.6329178,0,0,0,0,0,0,0,0,0,0,0,0,0,0,-0.2079137,0.5815067,-0.3728444,-0.625,-0.855835,-0.4375,0,0,0,0,0,0
7.710082,-0.877385,0.765208,-0.9197923,0.6251402,0,0,0,0,0,0,0,0,0,0,0,0,0,0,-0.2553937,0.5170339,-0.3970847,-0.6032715,-0.8206787,-0.4981689,0,0,0,0,0,0
7.720082,-0.8290224,0.8130026,-0.9197923,0.6251402,0,0,0,0,0,0,0,0,0,0,0,0,0,0,-0.1601636,0.248366,-0.2326245,-0.6054688,-0.7489014,-0.5495605,0,0,0,0,0,0
7.730082,-0.7743478,0.8866885,-0.9197923,0.6251402,0,0,0,0,0,0,0,0,0,0,0,0,0,0,-0.3251639,0.5175518,-0.5538646,-0.6047363,-0.6356201,-0.6066895,0,0,0,0,0,0
7.740082,-0.7177448,0.9262516,-0.9197923,0.6251402,0,0,0,0,0,0,0,0,0,0,0,0,0,0,-0.1423291,0.2731242,-0.3354076,-0.5877686,-0.5858154,-0.6193848,0,0,0,0,0,0
7.750082,-0.653713,0.9745538,-0.9133403,0.6580837,0,0,0,0,0,0,0,0,0,0,0,0,0,0,-0.2415694,0.6480728,-0.8913905,-0.5463867,-0.5029297,-0.5961914,0,0,0,0,0,0
7.760083,-0.6380451,0.991177,-0.8881902,0.6731127,0,0,0,0,0,0,0,0,0,0,0,0,0,0,-0.1089856,0.3584526,-0.5101825,-0.5323486,-0.4754639,-0.5788574,0,0,0,0,0,0
7.770083,-0.5154955,1,-0.7933249,0.7933249,0,0,0,0,0,0,0,0,0,0,0,0,0,0,0.01874351,0.8676388,-1.267722,-0.475708,-0.3654785,-0.4649658,0,0,0,0,0,0
7.780083,-0.3928797,1,-0.6972183,0.8725189,0,0,0,0,0,0,0,0,0,0,0,0,0,0,0.2762551,0.9579941,-1.318268,-0.3994141,-0.4655762,-0.4362793,0,0,0,0,0,0
7.790083,-0.3042357,1,-0.6090192,0.9274606,0,0,0,0,0,0,0,0,0,0,0,0,0,0,0.4590163,1.004058,-1.309268,-0.3239746,-0.5794678,-0.4133301,0,0,0,0,0,0
7.800084,-0.2086106,1,-0.5052344,0.9826212,0,0,0,0,0,0,0,0,0,0,0,0,0,0,0.5682245,1.0149,-1.268533,-0.2581787,-0.6593018,-0.3669434,0,0,0,0,0,0
7.810084,-0.07454614,1,-0.2802319,1,0,0,0,0,0,0,0,0,0,0,0,0,0,0,0.7899349,1.019797,-1.238281,-0.1722412,-0.6992188,-0.364624,0,0,0,0,0,0
7.820084,0.01176485,1,-0.09026043,1,0,0,0,0,0,0,0,0,0,0,0,0,0,0,1.031028,1.012286,-1.254426,-0.1761475,-0.7919922,-0.3867188,0,0,0,0,0,0
7.830084,0.06669273,1,0.09026043,1,0,0,0,0,0,0,0,0,0,0,0,0,0,0,0.6057719,0.4890659,-0.6392593,-0.1844482,-0.9182129,-0.3165283,0,0,0,0,0,0
7.840085,0.09026043,1,0.2882255,1,0,0,0,0,0,0,0,0,0,0,0,0,0,0,1.252294,0.8998675,-1.282473,-0.09545898,-1.064941,-0.293457,0,0,0,0,0,0
7.850085,0.113854,1,0.4091095,1,0,0,0,0,0,0,0,0,0,0,0,0,0,0,1.27267,0.8505618,-1.278495,-0.005004883,-1.118164,-0.2303467,0,0,0,0,0,0
7.860085,0.1611441,1,0.5480344,1,0,0,0,0,0,0,0,0,0,0,0,0,0,0,0.5958444,0.3926161,-0.5928457,0.02807617,-1.162964,-0.1324463,0,0,0,0,0,0
7.870085,0.2882255,1,0.7002302,0.9163012,0,0,0,0,0,0,0,0,0,0,0,0,0,0,1.182189,0.8106358,-1.158295,0.1186523,-1.144653,-0.159668,0,0,0,0,0,0
7.880085,0.4172379,1,0.771321,0.8432577,0,0,0,0,0,0,0,0,0,0,0,0,0,0,1.253926,0.8473619,-1.125984,0.15979,-1.098999,-0.2058105,0,0,0,0,0,0
7.890086,0.5154955,1,0.8432577,0.771321,0,0,0,0,0,0,0,0,0,0,0,0,0,0,0.6432578,0.4373353,-0.5168054,0.2003174,-1.120361,-0.2144775,0,0,0,0,0,0
7.900086,0.6202084,0.9723267,0.9133403,0.6580837,0,0,0,0,0,0,0,0,0,0,0,0,0,0,0.9338953,0.8407962,-0.7915886,0.2275391,-1.34668,-0.1697998,0,0,0,0,0,0
7.910086,0.6441975,0.9562932,0.9601151,0.5696949,0,0,0,0,0,0,0,0,0,0,0,0,0,0,0.4065807,0.7991413,-0.5577833,0.1968994,-1.330078,-0.2095947,0,0,0,0,0,0
7.920086,0.6688248,0.9491705,0.9975828,0.4570599,0,0,0,0,0,0,0,0,0,0,0,0,0,0,0.005517909,0.72029,-0.4014451,0.1654053,-1.272095,-0.248291,0,0,0,0,0,0
7.930087,0.6850963,0.9415066,1,0.3202776,0,0,0,0,0,0,0,0,0,0,0,0,0,0,-0.07746452,0.3315981,-0.1509309,0.1304932,-1.228394,-0.362915,0,0,0,0,0,0
7.940087,0.7014025,0.9338674,1,0.1848525,0,0,0,0,0,0,0,0,0,0,0,0,0,0,-0.1364375,0.6681939,-0.3128567,0.02258301,-1.195801,-0.4301758,0,0,0,0,0,0
7.950087,0.7250457,0.9093114,1,0.09812176,0,0,0,0,0,0,0,0,0,0,0,0,0,0,-0.1124577,0.347869,-0.2201671,0.03918457,-1.211914,-0.4346924,0,0,0,0,0,0
7.960087,0.765208,0.877385,1,0.02745281,0,0,0,0,0,0,0,0,0,0,0,0,0,0,-0.3560799,0.6744823,-0.5751406,0.138916,-1.217163,-0.3441162,0,0,0,0,0,0
7.970088,0.8056167,0.8456972,1,0.01176485,0,0,0,0,0,0,0,0,0,0,0,0,0,0,-0.2412905,0.3199521,-0.3402519,0.2277832,-1.229858,-0.2792969,0,0,0,0,0,0
7.980088,0.8284124,0.8044004,1,0.01176485,0,0,0,0,0,0,0,0,0,0,0,0,0,0,-0.6477445,0.6823638,-0.8011788,0.3077393,-1.133789,-0.2508545,0,0,0,0,0,0
7.990088,0.8450909,0.7970289,1,0.01176485,0,0,0,0,0,0,0,0,0,0,0,0,0,0,-0.7286663,0.7524054,-0.8641043,0.3218994,-1.015991,-0.2575684,0,0,0,0,0,0
8.000088,0.8531445,0.7890585,1,0.01960851,0,0,0,0,0,0,0,0,0,0,0,0,0,0,-0.3371231,0.4110952,-0.4273391,0.3636475,-0.8902588,-0.2745361,0,0,0,0,0,0
8.010088,0.851927,0.7719339,1,0.02745281,0,0,0,0,0,0,0,0,0,0,0,0,0,0,-0.533101,0.8264752,-0.7616958,0.4332275,-0.7756348,-0.2294922,0,0,0,0,0,0
8.020088,0.8606049,0.772543,1,0.02745281,0,0,0,0,0,0,0,0,0,0,0,0,0,0,-0.2039205,0.3946922,-0.3160305,0.4744873,-0.7290039,-0.2363281,0,0,0,0,0,0
8.030088,0.8606049,0.772543,1,0.01176485,0,0,0,0,0,0,0,0,0,0,0,0,0,0,-0.3247278,0.7859159,-0.5291411,0.4871826,-0.7076416,-0.2307129,0,0,0,0,0,0
8.040089,0.8606049,0.772543,0.9908403,-0.02741455,0,0,0,0,0,0,0,0,0,0,0,0,0,0,-0.2401491,0.746188,-0.4088286,0.5223389,-0.6733398,-0.2463379,0,0,0,0,0,0
8.050089,0.8606049,0.772543,0.9727282,-0.06641117,0,0,0,0,0,0,0,0,0,0,0,0,0,0,-0.06945121,0.320275,-0.1501445,0.4538574,-0.7692871,-0.1040039,0,0,0,0,0,0
8.060089,0.8606049,0.772543,0.9728299,-0.074232,0,0,0,0,0,0,0,0,0,0,0,0,0,0,-0.08669755,0.4848144,-0.2427147,0.4499512,-0.7696533,-0.09436035,0,0,0,0,0,0
8.070089,0.8606049,0.772543,0.9451737,-0.07390247,0,0,0,0,0,0,0,0,0,0,0,0,0,0,-0.08372917,0.1603079,-0.1051804,0.4005127,-0.8518066,-0.08850098,0,0,0,0,0,0
8.08009,0.8606049,0.772543,0.8339266,-0.01142365,0,0,0,0,0,0,0,0,0,0,0,0,0,0,-0.3079454,0.1998387,-0.1642957,0.3874512,-0.7977295,-0.09033203,0,0,0,0,0,0
8.09009,0.8606049,0.772543,0.7338147,0.09312369,0,0,0,0,0,0,0,0,0,0,0,0,0,0,-0.3680932,0.08481069,-0.1152205,0.3897705,-0.7041016,-0.09362793,0,0,0,0,0,0
8.10009,0.851927,0.7719339,0.6491943,0.2163981,0,0,0,0,0,0,0,0,0,0,0,0,0,0,-0.1889289,-0.009996235,-0.02024238,0.3911133,-0.602417,-0.1091309,0,0,0,0,0,0
8.11009,0.8599966,0.763997,0.591428,0.4352017,0,0,0,0,0,0,0,0,0,0,0,0,0,0,-0.2722371,-0.09409123,0.05795491,0.3896484,-0.5380859,-0.09326172,0,0,0,0,0,0
8.12009,0.8987648,0.6990393,0.585893,0.6318454,0,0,0,0,0,0,0,0,0,0,0,0,0,0,-0.1956367,-0.1397926,0.1731451,0.4005127,-0.5175781,-0.1219482,0,0,0,0,0,0
8.130091,0.9451655,0.6101702,0.604193,0.8569274,0,0,0,0,0,0,0,0,0,0,0,0,0,0,-0.05282088,-0.09433948,0.1554641,0.40271,-0.5537109,-0.1352539,0,0,0,0,0,0
8.140091,1,0.5062566,0.5387272,0.9936524,0,0,0,0,0,0,0,0,0,0,0,0,0,0,0.03640667,-0.2607542,0.4523069,0.4832764,-0.5219727,-0.1949463,0,0,0,0,0,0
8.150091,1,0.433522,0.5067592,1,0,0,0,0,0,0,0,0,0,0,0,0,0,0,0.1751774,-0.2821322,0.6572266,0.4836426,-0.6121826,-0.1645508,0,0,0,0,0,0
8.160091,1,0.4091095,0.5067592,1,0,0,0,0,0,0,0,0,0,0,0,0,0,0,0.2239814,-0.2560451,0.7192705,0.4659424,-0.6474609,-0.1462402,0,0,0,0,0,0
8.170092,1,0.3928797,0.5067592,1,0,0,0,0,0,0,0,0,0,0,0,0,0,0,0.1104954,-0.1148783,0.3746231,0.4451904,-0.6835938,-0.1398926,0,0,0,0,0,0
8.180092,1,0.3847782,0.5067592,1,0,0,0,0,0,0,0,0,0,0,0,0,0,0,0.1024216,-0.1098033,0.3958456,0.4197998,-0.6955566,-0.161377,0,0,0,0,0,0
