Timestamp, Left Stick X, LeftStickY, Right Stick X, Right Stick Y, D-Pad Up, D-Pad Right,D-Pad Down, D-Pad Left, Button North, Button East, Button South, Button West, L1, R1, L2, R2, L3, R3,Gyroscope X, Gyroscope Y, Gyroscope Z, Accelerometer X, Accelerometer Y, Accelerometer Z,Touch 1, Touch 2, Touch 1 Pos X, Touch 1 Pos Y, Touch 2 Pos X, Touch 2 Pos Y
0,0,0,0,0,0,0,0,0,0,0,0,0,0,0,0,0,0,0,-0.1172013,-0.1491879,0.1629323,-0.0526123,-1.040405,-0.1159668,0,0,0,0,0,0
0.01,0,0,0,0,0,0,0,0,0,0,0,0,0,0,0,0,0,0,-0.1349436,-0.1679298,0.2061636,-0.06018066,-1.016357,-0.1104736,0,0,0,0,0,0
0.02,0,0,0,0,0,0,0,0,0,0,0,0,0,0,0,0,0,0,-0.1212563,-0.1810382,0.2512581,-0.05371094,-0.9803467,-0.1138916,0,0,0,0,0,0
0.03,0,0,0,0,0,0,0,0,0,0,0,0,0,0,0,0,0,0,-0.04359838,-0.1010375,0.1455586,-0.05517578,-0.958252,-0.1297607,0,0,0,0,0,0
0.04,0,0,0,0,0,0,0,0,0,0,0,0,0,0,0,0,0,0,-0.06552702,-0.2387345,0.3278082,-0.07788086,-0.9543457,-0.1296387,0,0,0,0,0,0
0.05,0,0,0,0,0,0,0,0,0,0,0,0,0,0,0,0,0,0,-0.05470964,-0.2560176,0.3361982,-0.09240723,-0.9454346,-0.118042,0,0,0,0,0,0
0.05999999,0,0,0,0,0,0,0,0,0,0,0,0,0,0,0,0,0,0,-0.02198993,-0.1414352,0.1711716,-0.09997559,-0.9407959,-0.119873,0,0,0,0,0,0
0.06999999,0,0,0,0,0,0,0,0,0,0,0,0,0,0,0,0,0,0,-0.01574279,-0.1431844,0.1644247,-0.1055908,-0.9417725,-0.123291,0,0,0,0,0,0
0.07999999,0,0,0,0,0,0,0,0,0,0,0,0,0,0,0,0,0,0,-0.01612773,-0.2804192,0.2856283,-0.1206055,-0.9505615,-0.1105957,0,0,0,0,0,0
0.08999999,0,0,0,0,0,0,0,0,0,0,0,0,0,0,0,0,0,0,-0.01466685,-0.2758635,0.24851,-0.1408691,-0.9603271,-0.1092529,0,0,0,0,0,0
0.09999999,0,0,0,0,0,0,0,0,0,0,0,0,0,0,0,0,0,0,-0.009227169,-0.1294111,0.09296374,-0.1514893,-0.9725342,-0.1137695,0,0,0,0,0,0
0.11,0,0,0,0,0,0,0,0,0,0,0,0,0,0,0,0,0,0,-0.01038057,-0.1238747,0.07289464,-0.1588135,-0.980957,-0.1094971,0,0,0,0,0,0
0.12,0,0,0,0,0,0,0,0,0,0,0,0,0,0,0,0,0,0,-0.007150426,-0.1146375,0.05535813,-0.1604004,-0.9798584,-0.1098633,0,0,0,0,0,0
0.13,0,0,0,0,0,0,0,0,0,0,0,0,0,0,0,0,0,0,-0.0110914,-0.2136977,0.08417587,-0.1578369,-0.9949951,-0.105957,0,0,0,0,0,0
0.14,0,0,0,0,0,0,0,0,0,0,0,0,0,0,0,0,0,0,-0.02024148,-0.1984174,0.06847155,-0.1630859,-1.000122,-0.1130371,0,0,0,0,0,0
0.15,0,0,0,0,0,0,0,0,0,0,0,0,0,0,0,0,0,0,-0.02898672,-0.1751698,0.05072677,-0.1713867,-0.9912109,-0.1168213,0,0,0,0,0,0
0.16,0,0,0,0,0,0,0,0,0,0,0,0,0,0,0,0,0,0,-0.03023989,-0.1501997,0.02899045,-0.1749268,-0.9794922,-0.1263428,0,0,0,0,0,0
0.17,0,0,0,0,0,0,0,0,0,0,0,0,0,0,0,0,0,0,-0.01224539,-0.06297629,-0.0007497177,-0.1744385,-0.9847412,-0.1185303,0,0,0,0,0,0
0.18,0,0,0,0,0,0,0,0,0,0,0,0,0,0,0,0,0,0,-0.01199451,-0.0537254,-0.01524302,-0.1694336,-0.9984131,-0.1311035,0,0,0,0,0,0
0.19,0,0,0,0,0,0,0,0,0,0,0,0,0,0,0,0,0,0,-0.03198655,-0.09271143,-0.05797566,-0.1717529,-1.01709,-0.1273193,0,0,0,0,0,0
0.2,0,0,0,0,0,0,0,0,0,0,0,0,0,0,0,0,0,0,-0.02223982,-0.03898215,-0.04023157,-0.170166,-1.018311,-0.1228027,0,0,0,0,0,0
0.21,0,0,0,0,0,0,0,0,0,0,0,0,0,0,0,0,0,0,-0.05072886,-0.0627237,-0.09745944,-0.1621094,-1.025146,-0.1199951,0,0,0,0,0,0
0.22,0,0,0,0,0,0,0,0,0,0,0,0,0,0,0,0,0,0,-0.05272585,-0.04747826,-0.1186956,-0.1549072,-1.024292,-0.1209717,0,0,0,0,0,0
0.23,0,0,0,0,0,0,0,0,0,0,0,0,0,0,0,0,0,0,-0.02474068,-0.01149567,-0.07397215,-0.1622314,-1.029297,-0.1149902,0,0,0,0,0,0
0.24,0,0,0,0,0,0,0,0,0,0,0,0,0,0,0,0,0,0,-0.02698984,0,-0.08921641,-0.1617432,-1.030273,-0.1181641,0,0,0,0,0,0
0.25,0,0,0,0,0,0,0,0,0,0,0,0,0,0,0,0,0,0,-0.04972722,0.0277373,-0.1946608,-0.1590576,-1.02478,-0.1164551,0,0,0,0,0,0
0.26,-0.02082969,-0.01294819,0,0,0,0,0,0,0,0,0,0,0,0,0,0,0,0,-0.044904,0.04965182,-0.1908034,-0.157959,-1.01355,-0.1231689,0,0,0,0,0,0
0.27,-0.07420043,-0.04391453,0,0,0,0,0,0,0,0,0,0,0,0,0,0,0,0,-0.03948347,0.08221583,-0.2001665,-0.1506348,-1.004761,-0.1300049,0,0,0,0,0,0
0.28,-0.1305462,-0.07918375,0,0,0,0,0,0,0,0,0,0,0,0,0,0,0,0,-0.03423721,0.1022113,-0.1996748,-0.145752,-1.004639,-0.1367188,0,0,0,0,0,0
0.29,-0.1847411,-0.1088201,0,0,0,0,0,0,0,0,0,0,0,0,0,0,0,0,-0.01349382,0.06347093,-0.1017034,-0.144165,-0.9980469,-0.1339111,0,0,0,0,0,0
0.3,-0.2560216,-0.1409557,0,0,0,0,0,0,0,0,0,0,0,0,0,0,0,0,-0.02898756,0.1393445,-0.2056432,-0.1392822,-0.9841309,-0.1467285,0,0,0,0,0,0
0.31,-0.3109933,-0.1693528,0,0,0,0,0,0,0,0,0,0,0,0,0,0,0,0,-0.03298624,0.1526862,-0.2239065,-0.1479492,-0.9835205,-0.1536865,0,0,0,0,0,0
0.32,-0.4385484,-0.2277732,0,0,0,0,0,0,0,0,0,0,0,0,0,0,0,0,-0.03073712,0.1561849,-0.2269054,-0.1480713,-0.982666,-0.1607666,0,0,0,0,0,0
0.33,-0.5482489,-0.2759161,0,0,0,0,0,0,0,0,0,0,0,0,0,0,0,0,-0.02548947,0.1526863,-0.230154,-0.1259766,-0.9890137,-0.1719971,0,0,0,0,0,0
0.3399999,-0.6500847,-0.3306145,0,0,0,0,0,0,0,0,0,0,0,0,0,0,0,0,-0.002998627,0.07396612,-0.1072009,-0.1162109,-0.9916992,-0.1621094,0,0,0,0,0,0
0.3499999,-0.7518463,-0.3854644,0,0,0,0,0,0,0,0,0,0,0,0,0,0,0,0,0.006938994,0.1441633,-0.1825111,-0.1104736,-0.9830322,-0.1525879,0,0,0,0,0,0
0.3599999,-0.8179055,-0.4380252,0.02362888,-0.02219683,0,0,0,0,0,0,0,0,0,0,0,0,0,0,0.009361411,0.1437081,-0.1623347,-0.1103516,-0.9807129,-0.1494141,0,0,0,0,0,0
0.3699999,-0.8837993,-0.4909996,0.06461862,-0.05560206,0,0,0,0,0,0,0,0,0,0,0,0,0,0,0.003998169,0.07321647,-0.07346635,-0.1055908,-0.9829102,-0.1616211,0,0,0,0,0,0
0.3799999,-0.9395315,-0.5272477,0.1470574,-0.105041,0,0,0,0,0,0,0,0,0,0,0,0,0,0,0.002498754,0.138942,-0.1182005,-0.07971191,-1.005737,-0.1416016,0,0,0,0,0,0
0.3899999,-0.9395315,-0.5272477,0.2210662,-0.128273,0,0,0,0,0,0,0,0,0,0,0,0,0,0,-0.01599267,0.06721921,-0.04223066,-0.0958252,-0.9887695,-0.144043,0,0,0,0,0,0
0.3999999,-0.9306184,-0.5266904,0.3084477,-0.1557508,0,0,0,0,0,0,0,0,0,0,0,0,0,0,-0.02864162,0.1335778,-0.06208889,-0.08496094,-0.9803467,-0.1566162,0,0,0,0,0,0
0.4099999,-0.9311798,-0.5349331,0.371365,-0.1776094,0,0,0,0,0,0,0,0,0,0,0,0,0,0,-0.02568135,0.1328858,-0.05076695,-0.07910156,-0.980957,-0.1478271,0,0,0,0,0,0
0.4199999,-0.9311798,-0.5349331,0.4434786,-0.1997346,0,0,0,0,0,0,0,0,0,0,0,0,0,0,-0.01824224,0.1419409,-0.04273212,-0.07922363,-0.9730225,-0.1551514,0,0,0,0,0,0
0.4299999,-0.9311798,-0.5349331,0.497427,-0.2121892,0,0,0,0,0,0,0,0,0,0,0,0,0,0,0.0007498398,0.1419407,-0.04123276,-0.0802002,-0.9742432,-0.1610107,0,0,0,0,0,0
0.4399998,-0.9400869,-0.5354926,0.551627,-0.2242097,0,0,0,0,0,0,0,0,0,0,0,0,0,0,0.009745537,0.07046773,-0.02049061,-0.07971191,-0.9750977,-0.1590576,0,0,0,0,0,0
0.4499998,-0.9406446,-0.5437481,0.6252773,-0.2523049,0,0,0,0,0,0,0,0,0,0,0,0,0,0,0.0342292,0.1343048,-0.03555577,-0.08642578,-0.973877,-0.1623535,0,0,0,0,0,0
0.4599998,-0.933445,-0.5680113,0.6714023,-0.2707866,0,0,0,0,0,0,0,0,0,0,0,0,0,0,0.04772747,0.1312272,-0.03673275,-0.08569336,-0.9825439,-0.1499023,0,0,0,0,0,0
0.4699998,-0.9103752,-0.6161929,0.7163584,-0.2737914,0,0,0,0,0,0,0,0,0,0,0,0,0,0,0.02652811,0.06320611,-0.02422132,-0.08898926,-0.9870605,-0.1560059,0,0,0,0,0,0
0.4799998,-0.853813,-0.6790792,0.7619999,-0.2843283,0,0,0,0,0,0,0,0,0,0,0,0,0,0,0.05047898,0.1346938,-0.07546841,-0.08520508,-0.9967041,-0.1512451,0,0,0,0,0,0
0.4899998,-0.7974913,-0.7340094,0.7710287,-0.2848628,0,0,0,0,0,0,0,0,0,0,0,0,0,0,0.04423153,0.1306955,-0.09096215,-0.07958984,-0.9997559,-0.1436768,0,0,0,0,0,0
0.4999998,-0.7346511,-0.8061307,0.7800626,-0.2853887,0,0,0,0,0,0,0,0,0,0,0,0,0,0,0.0167437,0.06497554,-0.05198043,-0.07141113,-1.010254,-0.1374512,0,0,0,0,0,0
0.5099998,-0.6472705,-0.8775876,0.7891013,-0.2859063,0,0,0,0,0,0,0,0,0,0,0,0,0,0,0.02668095,0.127119,-0.1026102,-0.05456543,-1.006104,-0.1296387,0,0,0,0,0,0
0.5199998,-0.5757334,-0.925144,0.7891013,-0.2859063,0,0,0,0,0,0,0,0,0,0,0,0,0,0,0.03073562,0.1316307,-0.1004338,-0.04003906,-1.01123,-0.1337891,0,0,0,0,0,0
0.5299998,-0.4882966,-0.9726233,0.7891013,-0.2859063,0,0,0,0,0,0,0,0,0,0,0,0,0,0,0.01545415,0.06573778,-0.0465931,-0.04150391,-1.013428,-0.1229248,0,0,0,0,0,0
0.5399998,-0.3524597,-1,0.7891013,-0.2859063,0,0,0,0,0,0,0,0,0,0,0,0,0,0,0.02398991,0.1471886,-0.09595992,-0.03320313,-1.004883,-0.1224365,0,0,0,0,0,0
0.5499998,-0.2403741,-1,0.7891013,-0.2859063,0,0,0,0,0,0,0,0,0,0,0,0,0,0,0.02848803,0.1514368,-0.09271128,-0.02722168,-0.9819336,-0.1340332,0,0,0,0,0,0
0.5599998,-0.1453634,-1,0.7891013,-0.2859063,0,0,0,0,0,0,0,0,0,0,0,0,0,0,0.01824165,0.07746452,-0.04972723,-0.02160645,-0.9836426,-0.1417236,0,0,0,0,0,0
0.5699998,-0.01960851,-1,0.7891013,-0.2859063,0,0,0,0,0,0,0,0,0,0,0,0,0,0,0.04055607,0.1513265,-0.08987729,-0.0234375,-0.987793,-0.1324463,0,0,0,0,0,0
0.5799997,0.05884144,-1,0.7636558,-0.3077419,0,0,0,0,0,0,0,0,0,0,0,0,0,0,0.04942135,0.153281,-0.0860403,-0.01464844,-0.9929199,-0.138916,0,0,0,0,0,0
0.5899997,0.1296006,-1,0.712972,-0.3432828,0,0,0,0,0,0,0,0,0,0,0,0,0,0,0.05247806,0.1619325,-0.088713,-0.01196289,-0.9987793,-0.1340332,0,0,0,0,0,0
0.5999997,0.2006854,-1,0.6545401,-0.3777631,0,0,0,0,0,0,0,0,0,0,0,0,0,0,0.01449336,0.08096292,-0.04822791,-0.02319336,-1.00708,-0.1300049,0,0,0,0,0,0
0.6099997,0.2635998,-0.9875154,0.5725109,-0.4173789,0,0,0,0,0,0,0,0,0,0,0,0,0,0,0.01399414,0.1649312,-0.1117035,-0.0246582,-1.011719,-0.1192627,0,0,0,0,0,0
0.6199997,0.30154,-0.943781,0.4747497,-0.4385093,0,0,0,0,0,0,0,0,0,0,0,0,0,0,0.01249521,0.1543063,-0.1151098,-0.02075195,-1.01416,-0.1175537,0,0,0,0,0,0
0.6299997,0.3237118,-0.9087331,0.3879512,-0.4520165,0,0,0,0,0,0,0,0,0,0,0,0,0,0,0.009842382,0.1504039,-0.1172628,-0.01184082,-1.017456,-0.109375,0,0,0,0,0,0
0.6399997,0.3382294,-0.8825067,0.341463,-0.4541106,0,0,0,0,0,0,0,0,0,0,0,0,0,0,0.0006534216,0.1477515,-0.1184973,-0.006469727,-1.020264,-0.109375,0,0,0,0,0,0
0.6499997,0.3600881,-0.8479493,0.2874437,-0.4467499,0,0,0,0,0,0,0,0,0,0,0,0,0,0,-0.0207405,0.1509309,-0.1299405,0.005126953,-1.018921,-0.118042,0,0,0,0,0,0
0.6599997,0.3743826,-0.8220978,0.2498815,-0.4415714,0,0,0,0,0,0,0,0,0,0,0,0,0,0,-0.03168017,0.1429837,-0.12451,0.01000977,-1.013428,-0.1175537,0,0,0,0,0,0
0.6699997,0.3879826,-0.7874894,0.2204763,-0.4375607,0,0,0,0,0,0,0,0,0,0,0,0,0,0,-0.01660891,0.06643562,-0.05859253,0.01281738,-1.005493,-0.1220703,0,0,0,0,0,0
0.6799996,0.392115,-0.7347397,0.1916527,-0.4337404,0,0,0,0,0,0,0,0,0,0,0,0,0,0,-0.03269625,0.1318806,-0.1133508,0.01818848,-1.003174,-0.1269531,0,0,0,0,0,0
0.6899996,0.3893586,-0.6993335,0.1704131,-0.431045,0,0,0,0,0,0,0,0,0,0,0,0,0,0,-0.03290909,0.1268307,-0.1025334,0.02124023,-0.9995117,-0.1298828,0,0,0,0,0,0
0.6999996,0.3943934,-0.6648347,0.1564289,-0.4293474,0,0,0,0,0,0,0,0,0,0,0,0,0,0,-0.02539311,0.1212946,-0.09173026,0.02258301,-0.9929199,-0.137085,0,0,0,0,0,0
0.7099996,0.3920885,-0.6385442,0.1425803,-0.4277411,0,0,0,0,0,0,0,0,0,0,0,0,0,0,-0.01174462,0.05847322,-0.04348009,0.02368164,-0.9909668,-0.1311035,0,0,0,0,0,0
0.7199996,0.3976397,-0.6131827,0.1349424,-0.4179924,0,0,0,0,0,0,0,0,0,0,0,0,0,0,-0.01635845,0.1017068,-0.07310359,0.03564453,-1.004272,-0.1296387,0,0,0,0,0,0
0.7299996,0.3968148,-0.6044936,0.1198691,-0.3984837,0,0,0,0,0,0,0,0,0,0,0,0,0,0,-0.01987607,0.08921213,-0.06585663,0.03930664,-1.007324,-0.133667,0,0,0,0,0,0
0.7399996,0.4039505,-0.5966608,0.1116823,-0.3797198,0,0,0,0,0,0,0,0,0,0,0,0,0,0,-0.01245668,0.03644732,-0.0288349,0.03942871,-1.003418,-0.1293945,0,0,0,0,0,0
0.7499996,0.4039505,-0.5966608,0.09555376,-0.3421441,0,0,0,0,0,0,0,0,0,0,0,0,0,0,-0.03269625,0.06410462,-0.05981817,0.046875,-1.00293,-0.1241455,0,0,0,0,0,0
0.7599996,0.4119436,-0.5975038,0.08681414,-0.3143271,0,0,0,0,0,0,0,0,0,0,0,0,0,0,-0.01799322,0.0297388,-0.03173805,0.05334473,-0.9901123,-0.1279297,0,0,0,0,0,0
0.7699996,0.4119436,-0.5975038,0.06859139,-0.2496727,0,0,0,0,0,0,0,0,0,0,0,0,0,0,-0.03027558,0.05313128,-0.06554897,0.06115723,-0.986084,-0.1342773,0,0,0,0,0,0
0.7799996,0.4119436,-0.5975038,0.05360059,-0.21185,0,0,0,0,0,0,0,0,0,0,0,0,0,0,-0.02981422,0.05168952,-0.06654862,0.06347656,-0.9918213,-0.1345215,0,0,0,0,0,0
0.7899995,0.4119436,-0.5975038,0.03733934,-0.1559467,0,0,0,0,0,0,0,0,0,0,0,0,0,0,-0.01314872,0.024452,-0.03137238,0.06738281,-0.9908447,-0.1390381,0,0,0,0,0,0
0.7999995,0.4119436,-0.5975038,0.01302451,-0.07959422,0,0,0,0,0,0,0,0,0,0,0,0,0,0,-0.01918324,0.0504379,-0.06149042,0.0736084,-0.9876709,-0.1392822,0,0,0,0,0,0
0.8099995,0.4119436,-0.5975038,0.001705513,-0.01398521,0,0,0,0,0,0,0,0,0,0,0,0,0,0,-0.006497024,0.02523844,-0.02923661,0.07336426,-0.9959717,-0.1387939,0,0,0,0,0,0
0.8199995,0.4119436,-0.5975038,0,0,0,0,0,0,0,0,0,0,0,0,0,0,0,0,-0.007996602,0.04773005,-0.04922941,0.07702637,-1.001831,-0.137207,0,0,0,0,0,0
0.8299995,0.4119436,-0.5975038,0,0,0,0,0,0,0,0,0,0,0,0,0,0,0,0,-0.00299883,0.02076113,-0.01960774,0.07824707,-0.9974365,-0.1447754,0,0,0,0,0,0
0.8399995,0.4110948,-0.5888655,0,0,0,0,0,0,0,0,0,0,0,0,0,0,0,0,0.005074556,0.04084628,-0.03506052,0.08361816,-0.9943848,-0.1408691,0,0,0,0,0,0
0.8499995,0.4110948,-0.5888655,0,0,0,0,0,0,0,0,0,0,0,0,0,0,0,0,0.005978251,0.04034824,-0.03194796,0.08081055,-0.9936523,-0.1351318,0,0,0,0,0,0
0.8599995,0.410235,-0.5802423,0,0,0,0,0,0,0,0,0,0,0,0,0,0,0,0,0.007554389,0.05797467,-0.0469795,0.07751465,-0.9908447,-0.1362305,0,0,0,0,0,0
0.8699995,0.4084823,-0.5630432,0,0,0,0,0,0,0,0,0,0,0,0,0,0,0,0,0.005747836,0.01799322,-0.01624388,0.0760498,-0.9914551,-0.1365967,0,0,0,0,0,0
0.8799995,0.3879321,-0.5184513,0,0,0,0,0,0,0,0,0,0,0,0,0,0,0,0,0.01424348,0.03173546,-0.03673318,0.07507324,-0.9886475,-0.1341553,0,0,0,0,0,0
0.8899994,0.3592488,-0.4730702,0,0,0,0,0,0,0,0,0,0,0,0,0,0,0,0,0.019261,0.02664254,-0.03746485,0.07714844,-0.9887695,-0.135498,0,0,0,0,0,0
0.8999994,0.3137698,-0.4172104,0,0,0,0,0,0,0,0,0,0,0,0,0,0,0,0,0.01049605,0.01174558,-0.01924275,0.07556152,-0.9914551,-0.1334229,0,0,0,0,0,0
0.9099994,0.2659136,-0.3447028,0,0,0,0,0,0,0,0,0,0,0,0,0,0,0,0,-0.003498683,0.02324125,-0.03048852,0.0682373,-1.015625,-0.1271973,0,0,0,0,0,0
0.9199994,0.2278321,-0.2902519,0,0,0,0,0,0,0,0,0,0,0,0,0,0,0,0,-0.01420547,0.019261,-0.01899191,0.06933594,-0.9993896,-0.1425781,0,0,0,0,0,0
0.9299994,0.1877615,-0.2282025,0,0,0,0,0,0,0,0,0,0,0,0,0,0,0,0,-0.008458002,0.01420553,-0.01589713,0.07568359,-1.002686,-0.1384277,0,0,0,0,0,0
0.9399994,0.1221022,-0.1460439,0,0,0,0,0,0,0,0,0,0,0,0,0,0,0,0,-0.0087464,0.01649312,-0.01424409,0.0769043,-0.9987793,-0.1313477,0,0,0,0,0,0
0.9499994,0.0908557,-0.1029698,0,0,0,0,0,0,0,0,0,0,0,0,0,0,0,0,-0.0112453,0.02049149,-0.01649314,0.0657959,-0.9962158,-0.1352539,0,0,0,0,0,0
0.9599994,0.07030685,-0.07716605,0,0,0,0,0,0,0,0,0,0,0,0,0,0,0,0,-0.006035422,0.02664022,-0.01964375,0.06445313,-0.9936523,-0.1395264,0,0,0,0,0,0
0.9699994,0.04924585,-0.05190779,0,0,0,0,0,0,0,0,0,0,0,0,0,0,0,0,-0.0009995422,0.03048705,-0.02350926,0.06567383,-1.003418,-0.1394043,0,0,0,0,0,0
0.9799994,0.01823836,-0.01823836,0,0,0,0,0,0,0,0,0,0,0,0,0,0,0,0,0.002767907,0.01753008,-0.01430085,0.06958008,-1.002197,-0.1419678,0,0,0,0,0,0
0.9899994,0,0,0,0,0,0,0,0,0,0,0,0,0,0,0,0,0,0,0.008707785,0.04425038,-0.04088642,0.07043457,-1.00293,-0.1450195,0,0,0,0,0,0
0.9999993,0,0,0,0,0,0,0,0,0,0,0,0,0,0,0,0,0,0,0.008246569,0.05172841,-0.05197825,0.06774902,-1.002197,-0.1396484,0,0,0,0,0,0
1.009999,0,0,0,0,0,0,0,0,0,0,0,0,0,0,0,0,0,0,0.002748741,0.05522471,-0.05897299,0.07165527,-1.010254,-0.1469727,0,0,0,0,0,0
1.019999,0,0,0,0,0,0,0,0,0,0,0,0,0,0,0,0,0,0,0.0004998118,0.02773956,-0.03198795,0.07971191,-1.009033,-0.1479492,0,0,0,0,0,0
1.029999,0,0,0,0,0,0,0,0,0,0,0,0,0,0,0,0,0,0,0,0.02624012,-0.03348739,0.08532715,-1.010498,-0.1495361,0,0,0,0,0,0
1.039999,0,0,0,0,0,0,0,0,0,0,0,0,0,0,0,0,0,0,-0.006708701,0.04498082,-0.06608726,0.09033203,-1.009033,-0.1484375,0,0,0,0,0,0
1.049999,0,0,0,0,0,0,0,0,0,0,0,0,0,0,0,0,0,0,-0.003248695,0.04123285,-0.06347355,0.09350586,-1.01355,-0.1451416,0,0,0,0,0,0
1.059999,0,0,0,0,0,0,0,0,0,0,0,0,0,0,0,0,0,0,0.0004997711,0.0172421,-0.02648787,0.09753418,-1.010742,-0.1450195,0,0,0,0,0,0
1.069999,0,0,0,0,0,0,0,0,0,0,0,0,0,0,0,0,0,0,0.01149514,0.02773846,-0.04298215,0.09765625,-1.008301,-0.1381836,0,0,0,0,0,0
1.079999,0,0,0,0,0,0,0,0,0,0,0,0,0,0,0,0,0,0,0.01349441,0.0207414,-0.03498551,0.09692383,-1.017212,-0.137085,0,0,0,0,0,0
1.089999,0,0,0,0,0,0,0,0,0,0,0,0,0,0,0,0,0,0,-0.002748965,0.00674746,-0.0124953,0.08935547,-1.026123,-0.1334229,0,0,0,0,0,0
1.099999,0,0,0,0,0,0,0,0,0,0,0,0,0,0,0,0,0,0,-0.0359093,0.007977722,-0.0175702,0.08081055,-1.01709,-0.1357422,0,0,0,0,0,0
1.109999,0,0,0,0,0,0,0,0,0,0,0,0,0,0,0,0,0,0,-0.05722379,0,-0.01299405,0.09545898,-1.011353,-0.1386719,0,0,0,0,0,0
1.119999,0,0,0,0,0,0,0,0,0,0,0,0,0,0,0,0,0,0,-0.05951301,-0.003863725,-0.004574968,0.109375,-1.015137,-0.1258545,0,0,0,0,0,0
1.129999,0,0,0,0,0,0,0,0,0,0,0,0,0,0,0,0,0,0,-0.04698614,-0.00399882,-0.0007497788,0.1138916,-1.033325,-0.140625,0,0,0,0,0,0
1.139999,0,0,0,0,0,0,0,0,0,0,0,0,0,0,0,0,0,0,-0.1064599,-0.01599398,0.0042484,0.0994873,-1.015991,-0.130249,0,0,0,0,0,0
1.149999,0,0,0,0,0,0,0,0,0,0,0,0,0,0,0,0,0,0,-0.1009538,-0.01599267,0.01424348,0.09619141,-0.9990234,-0.1369629,0,0,0,0,0,0
1.159999,0,0,0,0,0,0,0,0,0,0,0,0,0,0,0,0,0,0,-0.05273015,-0.008496801,0.01574407,0.0904541,-1.000732,-0.12854,0,0,0,0,0,0
1.169999,0,0,0,0,0,0,0,0,0,0,0,0,0,0,0,0,0,0,-0.05322996,-0.004748212,0.02374106,0.1030273,-1.001953,-0.1474609,0,0,0,0,0,0
1.179999,0,0,0,0,0,0,0,0,0,0,0,0,0,0,0,0,0,0,-0.05674208,-0.002998566,0.03413751,0.1206055,-1.012695,-0.138916,0,0,0,0,0,0
1.189999,0,0,0,0,0,0,0,0,0,0,0,0,0,0,0,0,0,0,-0.1289462,-0.00949616,0.08146594,0.07885742,-0.9611816,-0.1317139,0,0,0,0,0,0
1.199999,0,0,0,0,0,0,0,0,0,0,0,0,0,0,0,0,0,0,-0.1105301,-0.01328275,0.08432952,0.1015625,-0.954834,-0.1690674,0,0,0,0,0,0
1.209999,0,0,0,0,0,0,0,0,0,0,0,0,0,0,0,0,0,0,-0.08613275,-0.02183593,0.0938023,0.0994873,-0.9580078,-0.1496582,0,0,0,0,0,0
1.219999,0,0,0,0,0,0,0,0,0,0,0,0,0,0,0,0,0,0,-0.03448702,-0.008246895,0.04923147,0.1011963,-0.9821777,-0.1824951,0,0,0,0,0,0
1.229999,0,0,0,0,0,0,0,0,0,0,0,0,0,0,0,0,0,0,-0.02223982,-0.01424348,0.04797802,0.1021729,-0.9815674,-0.166748,0,0,0,0,0,0
1.239999,0,0,0,0,0,0,0,0,0,0,0,0,0,0,0,0,0,0,-0.03531191,-0.02837253,0.09392161,0.08605957,-0.9779053,-0.1574707,0,0,0,0,0,0
1.249999,0,0,0,0,0,0,0,0,0,0,0,0,0,0,0,0,0,0,-0.03008332,-0.02833412,0.100861,0.09191895,-0.9693604,-0.161377,0,0,0,0,0,0
1.259999,0,0,0,0,0,0,0,0,0,0,0,0,0,0,0,0,0,0,-0.02454622,-0.02812146,0.1030672,0.08374023,-0.9595947,-0.1552734,0,0,0,0,0,0
1.269999,0,0,0,0,0,0,0,0,0,0,0,0,0,0,0,0,0,0,-0.006689698,-0.01199532,0.0500574,0.07897949,-0.9630127,-0.1665039,0,0,0,0,0,0
1.279999,0,0,0,0,0,0,0,0,0,0,0,0,0,0,0,0,0,0,0.0006920377,-0.01130328,0.04936536,0.08215332,-0.9576416,-0.1605225,0,0,0,0,0,0
1.289999,0,0,0,0,0,0,0,0,0,0,0,0,0,0,0,0,0,0,0.02077877,-0.02235493,0.09439814,0.08911133,-0.9610596,-0.1539307,0,0,0,0,0,0
1.299999,0,0,0,0,0,0,0,0,0,0,0,0,0,0,0,0,0,0,0.03348603,-0.02848816,0.09121192,0.07775879,-0.9702148,-0.1575928,0,0,0,0,0,0
1.309999,0,0,0,0,0,0,0,0,0,0,0,0,0,0,0,0,0,0,0.02998749,-0.02873804,0.08571427,0.07067871,-0.9715576,-0.1547852,0,0,0,0,0,0
1.319999,0,0,0,0,0,0,0,0,0,0,0,0,0,0,0,0,0,0,0.02273958,-0.01524302,0.04098123,0.07275391,-0.9625244,-0.1569824,0,0,0,0,0,0
1.329999,0,0,0,0,0,0,0,0,0,0,0,0,0,0,0,0,0,0,0.07999679,-0.03623135,0.07284762,0.06079102,-0.9578857,-0.1625977,0,0,0,0,0,0
1.339999,0,0,0,0,0,0,0,0,0,0,0,0,0,0,0,0,0,0,0.1261055,-0.0413111,0.06541726,0.04956055,-0.9575195,-0.1639404,0,0,0,0,0,0
1.349999,0,0,0,0,0,0,0,0,0,0,0,0,0,0,0,0,0,0,0.09470662,-0.02998627,0.03498398,0.02490234,-0.9729004,-0.1638184,0,0,0,0,0,0
1.359999,0,0,0,0,0,0,0,0,0,0,0,0,0,0,0,0,0,0,0.2223981,-0.0727167,0.04273043,0.05334473,-0.9686279,-0.1557617,0,0,0,0,0,0
1.369999,0,0,0,0,0,0,0,0,0,0,0,0,0,0,0,0,0,0,0.2006661,-0.09745942,0.02374012,0.03186035,-1.021484,-0.1497803,0,0,0,0,0,0
1.379999,0,0,0,0,0,0,0,0,0,0,0,0,0,0,0,0,0,0,0.1804396,-0.09696744,0.02924017,0.02941895,-1.005127,-0.1474609,0,0,0,0,0,0
1.389999,0,0,0,0,0,0,0,0,0,0,0,0,0,0,0,0,0,0,0.07346635,-0.05322562,0.02174004,0.04321289,-1.015259,-0.145874,0,0,0,0,0,0
1.399999,0,0,0,0,0,0,0,0,0,0,0,0,0,0,0,0,0,0,0.06822432,-0.05672864,0.03273767,0.04870605,-1.015015,-0.1364746,0,0,0,0,0,0
1.409999,0,0,0,0,0,0,0,0,0,0,0,0,0,0,0,0,0,0,0.1299459,-0.1206996,0.0794668,0.03967285,-1.01062,-0.1374512,0,0,0,0,0,0
1.419999,0,0,0,0,0,0,0,0,0,0,0,0,0,0,0,0,0,0,0.1076996,-0.1165224,0.07565691,0.05126953,-1.021118,-0.1270752,0,0,0,0,0,0
1.429999,0,0,0,0,0,0,0,0,0,0,0,0,0,0,0,0,0,0,0.041481,-0.06347093,0.03648329,0.04174805,-1.019775,-0.1390381,0,0,0,0,0,0
1.439999,0,0,0,0,0,0,0,0,0,0,0,0,0,0,0,0,0,0,0.03123569,-0.06472036,0.03348466,0.02770996,-1.016602,-0.1324463,0,0,0,0,0,0
1.449999,0,0,0,0,0,0,0,0,0,0,0,0,0,0,0,0,0,0,0.03348589,-0.1276967,0.05672626,0.02478027,-1.0177,-0.1230469,0,0,0,0,0,0
1.459999,0,0,0,0,0,0,0,0,0,0,0,0,0,0,0,0,0,0,0.01499389,-0.129446,0.0487297,0.01721191,-1.019409,-0.1192627,0,0,0,0,0,0
1.469999,0,0,0,0,0,0,0,0,0,0,0,0,0,0,0,0,0,0,-0.007497075,-0.1259474,0.04947931,0.002197266,-1.011597,-0.1239014,0,0,0,0,0,0
1.479999,0,0,0,0,0,0,0,0,0,0,0,0,0,0,0,0,0,0,-0.0110726,-0.0555937,0.02191453,0.0135498,-1.003418,-0.1254883,0,0,0,0,0,0
1.489999,0,0,0,0,0,0,0,0,0,0,0,0,0,0,0,0,0,0,-0.007381084,-0.05282088,0.02052864,0.01574707,-0.9923096,-0.1264648,0,0,0,0,0,0
1.499999,0,0,0,0,0,0,0,0,0,0,0,0,0,0,0,0,0,0,-0.003094801,-0.1071275,0.04011754,0.0201416,-0.987915,-0.1263428,0,0,0,0,0,0
1.509999,0,0,0,0,0,0,0,0,0,0,0,0,0,0,0,0,0,0,0.006074282,-0.09966917,0.03650372,0.02087402,-0.9885254,-0.12854,0,0,0,0,0,0
1.519999,0,0,0,0,0,0,0,0,0,0,0,0,0,0,0,0,0,0,0.01199451,-0.04722837,0.01799176,0.01599121,-0.9932861,-0.1175537,0,0,0,0,0,0
1.529999,0,0,0,0,0,0,0,0,0,0,0,0,0,0,0,0,0,0,0.04073291,-0.08846311,0.0357351,0.01342773,-1.002197,-0.1159668,0,0,0,0,0,0
1.539999,0,0,0,0,0,0,0,0,0,0,0,0,0,0,0,0,0,0,0.04277027,-0.08102329,0.02744994,0.01184082,-1.007935,-0.1171875,0,0,0,0,0,0
1.549999,0,0,0,0,0,0,0,0,0,0,0,0,0,0,0,0,0,0,0.04154005,-0.07621753,0.01901112,0.01074219,-1.012451,-0.1162109,0,0,0,0,0,0
1.559999,0,0,0,0,0,0,0,0,0,0,0,0,0,0,0,0,0,0,0.02306589,-0.03436818,0.005074495,0.02001953,-1.015015,-0.1158447,0,0,0,0,0,0
1.569999,0,0,0,0,0,0,0,0,0,0,0,0,0,0,0,0,0,0,0.04440413,-0.06651011,0.003575365,0.01525879,-1.027344,-0.1135254,0,0,0,0,0,0
1.579999,0,0,0,0,0,0,0,0,0,0,0,0,0,0,0,0,0,0,0.03402407,-0.06245422,0.001903053,0.01171875,-1.030273,-0.1170654,0,0,0,0,0,0
1.589999,0,0,0,0,0,0,0,0,0,0,0,0,0,0,0,0,0,0,0.01693521,-0.05907106,0.003882931,0.01550293,-1.03479,-0.1123047,0,0,0,0,0,0
1.599999,0,0,0,0,0,0,0,0,0,0,0,0,0,0,0,0,0,0,0.001999247,-0.02848927,0.004998118,0.01672363,-1.028076,-0.1170654,0,0,0,0,0,0
1.609999,0,0,0,0,0,0,0,0,0,0,0,0,0,0,0,0,0,0,0.003632801,-0.05024364,0.01989364,0.02478027,-1.023926,-0.1164551,0,0,0,0,0,0
1.619999,0,0,0,0,0,0,0,0,0,0,0,0,0,0,0,0,0,0,0.0009995422,-0.04951738,0.02591209,0.02355957,-1.021729,-0.1166992,0,0,0,0,0,0
1.629999,0,0,0,0,0,0,0,0,0,0,0,0,0,0,0,0,0,0,-0.002998301,-0.02467833,0.01453023,0.0213623,-1.015747,-0.1182861,0,0,0,0,0,0
1.639999,0,0,0,0,0,0,0,0,0,0,0,0,0,0,0,0,0,0,-0.006958566,-0.05770627,0.03631151,0.0189209,-1.006226,-0.1201172,0,0,0,0,0,0
1.649999,0,0,0,0,0,0,0,0,0,0,0,0,0,0,0,0,0,0,-0.006247424,-0.0679717,0.0434819,0.0246582,-1.017822,-0.1213379,0,0,0,0,0,0
1.659999,0,0,0,0,0,0,0,0,0,0,0,0,0,0,0,0,0,0,-0.007996337,-0.03998169,0.02898672,0.02624512,-1.025635,-0.1218262,0,0,0,0,0,0
1.669999,0,0,0,0,0,0,0,0,0,0,0,0,0,0,0,0,0,0,-0.01549417,-0.04598268,0.04498306,0.01623535,-1.025269,-0.1166992,0,0,0,0,0,0
1.679999,0,0,0,0,0,0,0,0,0,0,0,0,0,0,0,0,0,0,-0.0501496,-0.1065847,0.1330723,0.01379395,-1.022583,-0.1141357,0,0,0,0,0,0
1.689999,0,0,0,0,0,0,0,0,0,0,0,0,0,0,0,0,0,0,-0.05762928,-0.1262346,0.171792,0.007202148,-1.027954,-0.1157227,0,0,0,0,0,0
1.699999,0,0,0,0,0,0,0,0,0,0,0,0,0,0,0,0,0,0,-0.03483257,-0.07151057,0.1024216,0.005004883,-1.026855,-0.1169434,0,0,0,0,0,0
1.709999,0,0,0,0,0,0,0,0,0,0,0,0,0,0,0,0,0,0,-0.04597894,-0.0882096,0.1246929,0.0003662109,-1.013428,-0.1191406,0,0,0,0,0,0
1.719999,0,0,0,0,0,0,0,0,0,0,0,0,0,0,0,0,0,0,-0.1029571,-0.1929196,0.26364,-0.008666992,-0.9886475,-0.1188965,0,0,0,0,0,0
1.729999,0,0,0,0,0,0,0,0,0,0,0,0,0,0,0,0,0,0,-0.1044522,-0.2021574,0.2593812,-0.01147461,-0.980957,-0.1143799,0,0,0,0,0,0
1.739999,0,0,0,0,0,0,0,0,0,0,0,0,0,0,0,0,0,0,-0.05272585,-0.1044522,0.1219442,-0.01879883,-0.9849854,-0.1141357,0,0,0,0,0,0
1.749999,0,0,0,0,0,0,0,0,0,0,0,0,0,0,0,0,0,0,-0.05547911,-0.10621,0.1124577,-0.02709961,-0.9891357,-0.1109619,0,0,0,0,0,0
1.759999,0,0,0,0,0,0,0,0,0,0,0,0,0,0,0,0,0,0,-0.1071467,-0.2049513,0.1942634,-0.03955078,-0.9866943,-0.1175537,0,0,0,0,0,0
1.769999,0,0,0,0,0,0,0,0,0,0,0,0,0,0,0,0,0,0,-0.1139524,-0.2146604,0.1889211,-0.04821777,-0.9854736,-0.1245117,0,0,0,0,0,0
1.779999,0,0,0,0,0,0,0,0,0,0,0,0,0,0,0,0,0,0,-0.1030523,-0.1988962,0.1729265,-0.0592041,-0.9926758,-0.1290283,0,0,0,0,0,0
1.789999,0,0,0,0,0,0,0,0,0,0,0,0,0,0,0,0,0,0,-0.05825178,-0.09900302,0.08350255,-0.06274414,-0.9996338,-0.1278076,0,0,0,0,0,0
1.799999,0,0,0,0,0,0,0,0,0,0,0,0,0,0,0,0,0,0,-0.0692183,-0.09370708,0.07996337,-0.06506348,-0.9990234,-0.1304932,0,0,0,0,0,0
1.809999,0,0,0,0,0,0,0,0,0,0,0,0,0,0,0,0,0,0,-0.1614261,-0.1739203,0.1504311,-0.07189941,-1.014526,-0.1291504,0,0,0,0,0,0
1.819999,0,0,0,0,0,0,0,0,0,0,0,0,0,0,0,0,0,0,-0.194669,-0.1596833,0.1404413,-0.07897949,-1.012573,-0.135498,0,0,0,0,0,0
1.829999,0,0,0,0,0,0,0,0,0,0,0,0,0,0,0,0,0,0,-0.2289042,-0.1454394,0.1236985,-0.07739258,-1.029785,-0.1450195,0,0,0,0,0,0
1.839999,0,0,0,0,0,0,0,0,0,0,0,0,0,0,0,0,0,0,-0.129169,-0.0572034,0.04866903,-0.08862305,-1.04895,-0.1392822,0,0,0,0,0,0
1.849999,0,0,0,0,0,0,0,0,0,0,0,0,0,0,0,0,0,0,-0.3620697,-0.09519809,0.07691585,-0.08398438,-1.068604,-0.1569824,0,0,0,0,0,0
1.859999,0,0,0,0,0,0,0,0,0,0,0,0,0,0,0,0,0,0,-0.4284156,-0.07094717,0.0303695,-0.08435059,-1.007813,-0.1655273,0,0,0,0,0,0
1.869999,0,0,0,0,0,0,0,0,0,0,0,0,0,0,0,0,0,0,-0.4128238,-0.04644156,-0.03141024,-0.09033203,-0.9295654,-0.1700439,0,0,0,0,0,0
1.879999,0,0,0,0,0,0,0,0,0,0,0,0,0,0,0,0,0,0,-0.2933657,-0.01324393,-0.08745994,-0.08056641,-0.9019775,-0.2091064,0,0,0,0,0,0
1.889999,0,0,0,0,0,0,0,0,0,0,0,0,0,0,0,0,0,0,-0.05622425,0.009495651,-0.03398444,-0.07958984,-0.9552002,-0.2333984,0,0,0,0,0,0
1.899999,0,0,0,0,0,0,0,0,0,0,0,0,0,0,0,0,0,0,-0.03873542,0.01724351,-0.0209921,-0.09545898,-0.9837646,-0.2269287,0,0,0,0,0,0
1.909999,0,0,0,0,0,0,0,0,0,0,0,0,0,0,0,0,0,0,-0.07685195,0.05061316,-0.01001483,-0.08898926,-0.9891357,-0.2416992,0,0,0,0,0,0
1.919999,0,0,0,0,0,0,0,0,0,0,0,0,0,0,0,0,0,0,-0.04082302,0.03090557,0.004151494,-0.08654785,-0.9812012,-0.2359619,0,0,0,0,0,0
1.929999,0,0,0,0,0,0,0,0,0,0,0,0,0,0,0,0,0,0,-0.03805872,0.03852003,0.00622779,-0.09313965,-0.9667969,-0.2301025,0,0,0,0,0,0
1.939999,0,0,0,0,0,0,0,0,0,0,0,0,0,0,0,0,0,0,-0.04148237,0.09446067,-0.003248736,-0.1077881,-0.9262695,-0.2370605,0,0,0,0,0,0
1.949998,0,0,0,0,0,0,0,0,0,0,0,0,0,0,0,0,0,0,0.001748975,0.1027071,-0.01824232,-0.1065674,-0.9344482,-0.2458496,0,0,0,0,0,0
1.959998,0,0,0,0,0,0,0,0,0,0,0,0,0,0,0,0,0,0,0.02399097,0.05123071,-0.01574407,-0.1171875,-0.9432373,-0.2434082,0,0,0,0,0,0
1.969998,0,0,0,0,0,0,0,0,0,0,0,0,0,0,0,0,0,0,0.03323478,0.05172631,-0.01924119,-0.1293945,-0.9667969,-0.2387695,0,0,0,0,0,0
1.979998,0,0,0,0,0,0,0,0,0,0,0,0,0,0,0,0,0,0,0.06130082,0.09757386,-0.03631145,-0.1306152,-0.9760742,-0.2410889,0,0,0,0,0,0
1.989998,0,0,0,0,0,0,0,0,0,0,0,0,0,0,0,0,0,0,0.05549561,0.09347948,-0.03579246,-0.1350098,-0.9610596,-0.2403564,0,0,0,0,0,0
1.999998,0,0,0,0,0,0,0,0,0,0,0,0,0,0,0,0,0,0,0.03273501,0.04522929,-0.01799176,-0.1234131,-0.9592285,-0.253418,0,0,0,0,0,0
2.009999,0,0,0,0,0,0,0,0,0,0,0,0,0,0,0,0,0,0,0.04398344,0.03923523,-0.01849304,-0.1225586,-0.9609375,-0.2426758,0,0,0,0,0,0
2.019999,0,0,0,0,0,0,0,0,0,0,0,0,0,0,0,0,0,0,0.1049519,0.06472036,-0.03673317,-0.1156006,-0.9852295,-0.2333984,0,0,0,0,0,0
2.029999,0,0,0,0,0,0,0,0,0,0,0,0,0,0,0,0,0,0,0.1099541,0.05197839,-0.03148692,-0.1156006,-0.9873047,-0.2253418,0,0,0,0,0,0
2.039999,0,0,0,0,0,0,0,0,0,0,0,0,0,0,0,0,0,0,0.05273015,0.01949266,-0.01099586,-0.1140137,-0.9978027,-0.2232666,0,0,0,0,0,0
2.049999,0,0,0,0,0,0,0,0,0,0,0,0,0,0,0,0,0,0,0.04447963,0.01324393,-0.007496567,-0.109375,-1.001831,-0.2145996,0,0,0,0,0,0
2.059999,0,0,0,0,0,0,0,0,0,0,0,0,0,0,0,0,0,0,0.06447324,0.01449401,-0.01499372,-0.1015625,-1.010864,-0.2106934,0,0,0,0,0,0
2.069999,0,0,0,0,0,0,0,0,0,0,0,0,0,0,0,0,0,0,0.04292412,0.00790051,-0.01658909,-0.09460449,-1.001099,-0.2039795,0,0,0,0,0,0
2.079998,0,0,0,0,0,0,0,0,0,0,0,0,0,0,0,0,0,0,0.01899285,0.003248777,-0.009246519,-0.08752441,-0.9926758,-0.2017822,0,0,0,0,0,0
2.089998,0,0,0,0,0,0,0,0,0,0,0,0,0,0,0,0,0,0,0.01924119,0.004248055,-0.008246223,-0.09204102,-0.9998779,-0.1984863,0,0,0,0,0,0
2.099998,0,0,0,0,0,0,0,0,0,0,0,0,0,0,0,0,0,0,0.01674233,0.006497024,-0.005997253,-0.08862305,-0.9945068,-0.1934814,0,0,0,0,0,0
2.109998,0,0,0,0,0,0,0,0,0,0,0,0,0,0,0,0,0,0,0.01074595,0.009996235,-0.006497554,-0.09008789,-0.9991455,-0.1925049,0,0,0,0,0,0
2.119998,0,0,0,0,0,0,0,0,0,0,0,0,0,0,0,0,0,0,0.008496109,0.01324393,-0.005247597,-0.08813477,-0.9921875,-0.1976318,0,0,0,0,0,0
2.129998,0,0,0,0,0,0,0,0,0,0,0,0,0,0,0,0,0,0,0.01103468,0.03054732,-0.005997945,-0.08239746,-0.9935303,-0.1962891,0,0,0,0,0,0
2.139998,0,0,0,0,0,0,0,0,0,0,0,0,0,0,0,0,0,0,0.007919025,0.03488611,-0.004785994,-0.07495117,-0.9873047,-0.199585,0,0,0,0,0,0
2.149998,0,0,0,0,0,0,0,0,0,0,0,0,0,0,0,0,0,0,0.01180218,0.03702115,-0.00572808,-0.07312012,-0.9816895,-0.2044678,0,0,0,0,0,0
2.159998,0,0,0,0,0,0,0,0,0,0,0,0,0,0,0,0,0,0,0.007746452,0.02049061,-0.002748741,-0.07629395,-0.9818115,-0.2080078,0,0,0,0,0,0
2.169998,0,0,0,0,0,0,0,0,0,0,0,0,0,0,0,0,0,0,0.006497024,0.01999084,-0.005747368,-0.07653809,-0.9814453,-0.2114258,0,0,0,0,0,0
2.179998,0,0,0,0,0,0,0,0,0,0,0,0,0,0,0,0,0,0,0.02037599,0.03773394,-0.01583943,-0.07739258,-0.9782715,-0.211792,0,0,0,0,0,0
2.189998,0,0,0,0,0,0,0,0,0,0,0,0,0,0,0,0,0,0,0.02662323,0.03677283,-0.0191841,-0.08483887,-0.980957,-0.213501,0,0,0,0,0,0
2.199998,0,0,0,0,0,0,0,0,0,0,0,0,0,0,0,0,0,0,0.01568619,0.01660891,-0.01245668,-0.07263184,-0.9882813,-0.2084961,0,0,0,0,0,0
2.209998,0,0,0,0,0,0,0,0,0,0,0,0,0,0,0,0,0,0,0.01637823,0.01707026,-0.01130328,-0.06933594,-0.9938965,-0.2056885,0,0,0,0,0,0
2.219998,0,0,0,0,0,0,0,0,0,0,0,0,0,0,0,0,0,0,0.0232573,0.03509751,-0.01870194,-0.07287598,-0.996582,-0.2047119,0,0,0,0,0,0
2.229998,0,0,0,0,0,0,0,0,0,0,0,0,0,0,0,0,0,0,0.01680056,0.03698428,-0.01364808,-0.06848145,-0.9942627,-0.2070313,0,0,0,0,0,0
2.239998,0,0,0,0,0,0,0,0,0,0,0,0,0,0,0,0,0,0,0.01824242,0.03773425,-0.008746381,-0.07324219,-0.9870605,-0.1981201,0,0,0,0,0,0
2.249998,0,0,0,0,0,0,0,0,0,0,0,0,0,0,0,0,0,0,0.0224897,0.03998169,-0.005247597,-0.07055664,-0.9851074,-0.2070313,0,0,0,0,0,0
2.259998,0,0,0,0,0,0,0,0,0,0,0,0,0,0,0,0,0,0,0.01374483,0.01974257,-0.002998871,-0.07385254,-0.9816895,-0.2064209,0,0,0,0,0,0
2.269998,0,0,0,0,0,0,0,0,0,0,0,0,0,0,0,0,0,0,0.01824165,0.01849153,-0.005747368,-0.07226563,-0.9833984,-0.2000732,0,0,0,0,0,0
2.279998,0,0,0,0,0,0,0,0,0,0,0,0,0,0,0,0,0,0,0.04797965,0.02908377,-0.01701203,-0.07653809,-0.9786377,-0.2037354,0,0,0,0,0,0
2.289998,0,0,0,0,0,0,0,0,0,0,0,0,0,0,0,0,0,0,0.05687957,0.02500862,-0.02281721,-0.07836914,-0.9758301,-0.1916504,0,0,0,0,0,0
2.299998,0,0,0,0,0,0,0,0,0,0,0,0,0,0,0,0,0,0,0.03273501,0.008995879,-0.01349382,-0.08850098,-0.9830322,-0.2010498,0,0,0,0,0,0
2.309998,0,0,0,0,0,0,0,0,0,0,0,0,0,0,0,0,0,0,0.06747189,0.009745985,-0.03623485,-0.08630371,-1.00354,-0.1959229,0,0,0,0,0,0
2.319998,0,0,0,0,0,0,0,0,0,0,0,0,0,0,0,0,0,0,0.06148226,0.00149972,-0.03998812,-0.08007813,-1.01355,-0.1905518,0,0,0,0,0,0
2.329998,0,0,0,0,0,0,0,0,0,0,0,0,0,0,0,0,0,0,0.04248211,-0.003498581,-0.03598496,-0.07214355,-1.016968,-0.1845703,0,0,0,0,0,0
2.339998,0,0,0,0,0,0,0,0,0,0,0,0,0,0,0,0,0,0,0.01099496,-0.00224897,-0.01224439,-0.06860352,-1.00708,-0.1827393,0,0,0,0,0,0
2.349998,0,0,0,0,0,0,0,0,0,0,0,0,0,0,0,0,0,0,0.009495651,-0.001249428,-0.008246223,-0.06530762,-0.9975586,-0.1835938,0,0,0,0,0,0
2.359998,0,0,0,0,0,0,0,0,0,0,0,0,0,0,0,0,0,0,0.01999166,0.0002498652,-0.0112453,-0.06469727,-0.9858398,-0.1850586,0,0,0,0,0,0
2.369998,0,0,0,0,0,0,0,0,0,0,0,0,0,0,0,0,0,0,0.0211256,0.003133295,-0.006478001,-0.06164551,-0.984375,-0.189209,0,0,0,0,0,0
2.379998,0,0,0,0,0,0,0,0,0,0,0,0,0,0,0,0,0,0,0.01893494,0.004825119,-0.007977823,-0.06713867,-0.9805908,-0.1846924,0,0,0,0,0,0
2.389998,0,0,0,0,0,0,0,0,0,0,0,0,0,0,0,0,0,0,0.006996796,0.00449794,-0.007746452,-0.06921387,-0.9807129,-0.1827393,0,0,0,0,0,0
2.399998,0,0,0,0,0,0,0,0,0,0,0,0,0,0,0,0,0,0,0.007996337,0.006497024,-0.009995421,-0.06518555,-0.9830322,-0.1818848,0,0,0,0,0,0
2.409998,0,0,0,0,0,0,0,0,0,0,0,0,0,0,0,0,0,0,0.02673873,0.01799247,-0.02374006,-0.0612793,-0.9755859,-0.1802979,0,0,0,0,0,0
2.419998,0,0,0,0,0,0,0,0,0,0,0,0,0,0,0,0,0,0,0.04298217,0.01999168,-0.03248651,-0.06774902,-0.9801025,-0.1817627,0,0,0,0,0,0
2.429998,0,0,0,0,0,0,0,0,0,0,0,0,0,0,0,0,0,0,0.02422132,0.01061124,-0.02029977,-0.07141113,-0.9866943,-0.1818848,0,0,0,0,0,0
2.439998,0,0,0,0,0,0,0,0,0,0,0,0,0,0,0,0,0,0,0.02537024,0.01130129,-0.02283322,-0.06835938,-0.9927979,-0.1820068,0,0,0,0,0,0
2.449998,0,0,0,0,0,0,0,0,0,0,0,0,0,0,0,0,0,0,0.02582924,0.01222277,-0.0228312,-0.06445313,-0.9907227,-0.1790771,0,0,0,0,0,0
2.459998,0,0,0,0,0,0,0,0,0,0,0,0,0,0,0,0,0,0,0.05959003,0.02498937,-0.04663399,-0.06359863,-0.9963379,-0.1763916,0,0,0,0,0,0
2.469998,0,0,0,0,0,0,0,0,0,0,0,0,0,0,0,0,0,0,0.05860719,0.02281625,-0.04903476,-0.0592041,-1.000732,-0.1743164,0,0,0,0,0,0
2.479998,0,0,0,0,0,0,0,0,0,0,0,0,0,0,0,0,0,0,0.0567263,0.0227405,-0.05447731,-0.05993652,-0.9998779,-0.1737061,0,0,0,0,0,0
2.489998,0,0,0,0,0,0,0,0,0,0,0,0,0,0,0,0,0,0,0.05072876,0.02274052,-0.05847562,-0.0604248,-1.000366,-0.1723633,0,0,0,0,0,0
2.499998,0,0,0,0,0,0,0,0,0,0,0,0,0,0,0,0,0,0,0.02049061,0.01099496,-0.02998627,-0.05615234,-1.001587,-0.1706543,0,0,0,0,0,0
2.509998,0,0,0,0,0,0,0,0,0,0,0,0,0,0,0,0,0,0,0.03392794,0.02233664,-0.05503429,-0.05212402,-1.006104,-0.1647949,0,0,0,0,0,0
2.519998,0,0,0,0,0,0,0,0,0,0,0,0,0,0,0,0,0,0,0.03052421,0.02519968,-0.05095698,-0.04699707,-1.004517,-0.1624756,0,0,0,0,0,0
2.529998,0,0,0,0,0,0,0,0,0,0,0,0,0,0,0,0,0,0,0.01384075,0.01314872,-0.02076113,-0.04492188,-1.003784,-0.1629639,0,0,0,0,0,0
2.539998,0,0,0,0,0,0,0,0,0,0,0,0,0,0,0,0,0,0,0.02748741,0.03323478,-0.03923203,-0.03869629,-0.9960938,-0.1622314,0,0,0,0,0,0
2.549998,0,0,0,0,0,0,0,0,0,0,0,0,0,0,0,0,0,0,0.02748855,0.03773428,-0.03723443,-0.03173828,-0.9902344,-0.1630859,0,0,0,0,0,0
2.559998,0,0,0,0,0,0,0,0,0,0,0,0,0,0,0,0,0,0,0.03248642,0.03898374,-0.03373595,-0.02954102,-0.9838867,-0.1629639,0,0,0,0,0,0
2.569998,0,0,0,0,0,0,0,0,0,0,0,0,0,0,0,0,0,0,0.01924119,0.02049061,-0.01774187,-0.03149414,-0.984375,-0.1600342,0,0,0,0,0,0
2.579998,0,0,0,0,0,0,0,0,0,0,0,0,0,0,0,0,0,0,0.02199172,0.0209921,-0.02074219,-0.02990723,-0.987793,-0.1573486,0,0,0,0,0,0
2.589998,-0.002844975,0.01008673,0,0,0,0,0,0,0,0,0,0,0,0,0,0,0,0,0.0254904,0.02024238,-0.02374106,-0.02539063,-0.9884033,-0.1599121,0,0,0,0,0,0
2.599998,-0.02058913,0.05934514,0,0,0,0,0,0,0,0,0,0,0,0,0,0,0,0,0.05122654,0.04073134,-0.04797803,-0.02233887,-1.001465,-0.1590576,0,0,0,0,0,0
2.609998,-0.04385352,0.1163072,0,0,0,0,0,0,0,0,0,0,0,0,0,0,0,0,0.02298947,0.02049061,-0.02198993,-0.02331543,-1.002441,-0.1550293,0,0,0,0,0,0
2.619998,-0.08422951,0.2016403,0,0,0,0,0,0,0,0,0,0,0,0,0,0,0,0,0.03998338,0.04173259,-0.03648482,-0.02209473,-1.003418,-0.1551514,0,0,0,0,0,0
2.629998,-0.1104156,0.2576365,0,0,0,0,0,0,0,0,0,0,0,0,0,0,0,0,0.03373729,0.04273391,-0.03248777,-0.02111816,-1.00354,-0.1481934,0,0,0,0,0,0
2.639998,-0.1369621,0.313491,0,0,0,0,0,0,0,0,0,0,0,0,0,0,0,0,0.01574279,0.02198993,-0.01699222,-0.0201416,-1.001709,-0.1519775,0,0,0,0,0,0
2.649998,-0.1616176,0.351756,0,0,0,0,0,0,0,0,0,0,0,0,0,0,0,0,0.02646956,0.03988688,-0.03627302,-0.01721191,-1.004639,-0.1502686,0,0,0,0,0,0
2.659998,-0.1786736,0.3800876,0,0,0,0,0,0,0,0,0,0,0,0,0,0,0,0,0.01074508,0.01974096,-0.01974096,-0.01208496,-0.9974365,-0.1464844,0,0,0,0,0,0
2.669998,-0.19486,0.399628,0,0,0,0,0,0,0,0,0,0,0,0,0,0,0,0,0.0227405,0.03648476,-0.04098288,-0.005126953,-0.9945068,-0.1506348,0,0,0,0,0,0
2.679998,-0.2040363,0.4181072,0,0,0,0,0,0,0,0,0,0,0,0,0,0,0,0,0.02349116,0.03348739,-0.04048476,-0.005737305,-0.9833984,-0.1524658,0,0,0,0,0,0
2.689998,-0.2122357,0.4278402,0,0,0,0,0,0,0,0,0,0,0,0,0,0,0,0,0.02593125,0.02621965,-0.03940631,-0.003662109,-0.9899902,-0.1529541,0,0,0,0,0,0
2.699998,-0.2204763,0.4375607,0,0,0,0,0,0,0,0,0,0,0,0,0,0,0,0,0.02666172,0.02070278,-0.03821452,0.0001220703,-0.9937744,-0.1501465,0,0,0,0,0,0
2.709998,-0.2204763,0.4375607,0,0,0,0,0,0,0,0,0,0,0,0,0,0,0,0,0.0133794,0.007843095,-0.01822366,0.003662109,-1,-0.1480713,0,0,0,0,0,0
2.719998,-0.2287559,0.447269,0,0,0,0,0,0,0,0,0,0,0,0,0,0,0,0,0.02998627,0.01449336,-0.03798261,0.002929688,-1.001099,-0.1408691,0,0,0,0,0,0
2.729998,-0.2360995,0.4482468,0,0,0,0,0,0,0,0,0,0,0,0,0,0,0,0,0.03023737,0.01249477,-0.03748438,0.002563477,-1.003418,-0.1374512,0,0,0,0,0,0
2.739998,-0.2444606,0.4579332,0,0,0,0,0,0,0,0,0,0,0,0,0,0,0,0,0.02716039,0.01055271,-0.03461847,0.001098633,-1.008057,-0.1373291,0,0,0,0,0,0
2.749998,-0.2454235,0.4666503,0,0,0,0,0,0,0,0,0,0,0,0,0,0,0,0,0.00945618,0.00484341,-0.01591406,0.0008544922,-1.008789,-0.1358643,0,0,0,0,0,0
2.759998,-0.2538076,0.4763238,0,0,0,0,0,0,0,0,0,0,0,0,0,0,0,0,0.01537742,0.01007221,-0.03242714,-0.003051758,-1.003906,-0.1369629,0,0,0,0,0,0
2.769998,-0.2612801,0.4772716,0,0,0,0,0,0,0,0,0,0,0,0,0,0,0,0,0.0172428,0.01149518,-0.02973754,-0.0009765625,-1.002319,-0.1380615,0,0,0,0,0,0
2.779998,-0.2622229,0.4859864,0,0,0,0,0,0,0,0,0,0,0,0,0,0,0,0,0.008246895,0.004748212,-0.01099586,-0.0007324219,-1.004028,-0.138916,0,0,0,0,0,0
2.789998,-0.2772781,0.4878691,0,0,0,0,0,0,0,0,0,0,0,0,0,0,0,0,0.01251389,0.006996999,-0.0192418,-0.002319336,-0.9980469,-0.1416016,0,0,0,0,0,0
2.799998,-0.2857981,0.4975004,0,0,0,0,0,0,0,0,0,0,0,0,0,0,0,0,0.01103374,0.003883012,-0.0177809,0.0001220703,-0.993042,-0.1422119,0,0,0,0,0,0
2.809998,-0.3019883,0.5080509,0,0,0,0,0,0,0,0,0,0,0,0,0,0,0,0,0.004382519,0.0004613178,-0.01014899,-0.004150391,-0.9931641,-0.1420898,0,0,0,0,0,0
2.819998,-0.3250958,0.5108649,0,0,0,0,0,0,0,0,0,0,0,0,0,0,0,0,0.01153355,-0.00169158,-0.02548914,-0.004882813,-0.9970703,-0.1390381,0,0,0,0,0,0
2.829998,-0.3484567,0.5137042,0,0,0,0,0,0,0,0,0,0,0,0,0,0,0,0,0.01199451,-0.002998627,-0.02648787,-0.005004883,-1.002563,-0.1408691,0,0,0,0,0,0
2.839998,-0.3651108,0.524169,0,0,0,0,0,0,0,0,0,0,0,0,0,0,0,0,0.005747836,-0.001499435,-0.01224539,-0.007446289,-1.000977,-0.1405029,0,0,0,0,0,0
2.849998,-0.3968456,0.5279139,0,0,0,0,0,0,0,0,0,0,0,0,0,0,0,0,0.006727907,-0.0009611296,-0.02333626,-0.001953125,-1.003296,-0.1390381,0,0,0,0,0,0
2.859998,-0.4209073,0.5307092,0,0,0,0,0,0,0,0,0,0,0,0,0,0,0,0,0.003844518,-0.0002498855,-0.02423971,0.0001220703,-1.00415,-0.1396484,0,0,0,0,0,0
2.869998,-0.4614767,0.535313,0,0,0,0,0,0,0,0,0,0,0,0,0,0,0,0,0.003844355,0.002421949,-0.02641072,0.003662109,-0.9997559,-0.1396484,0,0,0,0,0,0
2.879998,-0.4778586,0.5371279,0,0,0,0,0,0,0,0,0,0,0,0,0,0,0,0,0.0006919767,0.006016684,-0.02666172,0.0009765625,-1.005127,-0.1387939,0,0,0,0,0,0
2.889998,-0.5108698,0.5407016,0,0,0,0,0,0,0,0,0,0,0,0,0,0,0,0,0.0002306792,0.01009229,-0.02597082,0.005981445,-0.9998779,-0.1383057,0,0,0,0,0,0
2.899998,-0.5358323,0.5433264,0,0,0,0,0,0,0,0,0,0,0,0,0,0,0,0,0.002537472,0.004844264,-0.01314872,0.001708984,-1.003906,-0.1386719,0,0,0,0,0,0
2.909998,-0.5693684,0.5467445,0,0,0,0,0,0,0,0,0,0,0,0,0,0,0,0,0.006958566,0.008419508,-0.03196718,0.002807617,-1.010986,-0.1387939,0,0,0,0,0,0
2.919998,-0.6209689,0.560015,0,0,0,0,0,0,0,0,0,0,0,0,0,0,0,0,0.003325541,0.001653167,-0.03938711,0.005859375,-1.01709,-0.1357422,0,0,0,0,0,0
2.929998,-0.6465514,0.562385,0,0,0,0,0,0,0,0,0,0,0,0,0,0,0,0,-0.0009803155,-0.002210517,-0.03940465,0.00793457,-1.015015,-0.1412354,0,0,0,0,0,0
2.939998,-0.6722574,0.5646963,0,0,0,0,0,0,0,0,0,0,0,0,0,0,0,0,-0.007419884,-0.007189225,-0.03656142,0.008300781,-1.010986,-0.1409912,0,0,0,0,0,0
2.949998,-0.698079,0.5669482,0,0,0,0,0,0,0,0,0,0,0,0,0,0,0,0,-0.00938023,-0.01128318,-0.03246559,0.006469727,-1.008179,-0.1391602,0,0,0,0,0,0
2.959998,-0.7240089,0.5691407,0,0,0,0,0,0,0,0,0,0,0,0,0,0,0,0,-0.00620893,-0.01418626,-0.02495096,0.01159668,-1.003296,-0.1451416,0,0,0,0,0,0
2.969998,-0.7413519,0.5705693,0,0,0,0,0,0,0,0,0,0,0,0,0,0,0,0,-0.001999084,-0.007496567,-0.009995421,0.01135254,-0.9986572,-0.1462402,0,0,0,0,0,0
2.979998,-0.7674468,0.5726633,0,0,0,0,0,0,0,0,0,0,0,0,0,0,0,0,-0.002498957,-0.01624321,-0.0139942,0.01391602,-0.9981689,-0.1494141,0,0,0,0,0,0
2.989998,-0.7842183,0.5657296,0,0,0,0,0,0,0,0,0,0,0,0,0,0,0,0,-0.004498123,-0.0174927,-0.007746716,0.01269531,-0.9967041,-0.1490479,0,0,0,0,0,0
2.999998,-0.8017167,0.567068,0,0,0,0,0,0,0,0,0,0,0,0,0,0,0,0,-0.0004613585,-0.007151056,-0.0004613585,0.01159668,-0.9969482,-0.147583,0,0,0,0,0,0
3.009998,-0.8273892,0.5607425,0,0,0,0,0,0,0,0,0,0,0,0,0,0,0,0,0.001922178,-0.01562731,0.007015961,0.01147461,-1.002686,-0.1463623,0,0,0,0,0,0
3.019998,-0.8443588,0.5537423,0,0,0,0,0,0,0,0,0,0,0,0,0,0,0,0,-0.0007497788,-0.0163399,0.01276441,0.01208496,-1.008301,-0.1464844,0,0,0,0,0,0
3.029998,-0.8702276,0.5473377,0,0,0,0,0,0,0,0,0,0,0,0,0,0,0,0,-0.001749199,-0.008496109,0.007496567,0.01367188,-1.006104,-0.1448975,0,0,0,0,0,0
3.039998,-0.8956146,0.5326343,0,0,0,0,0,0,0,0,0,0,0,0,0,0,0,0,-0.001249448,-0.016743,0.01874219,0.009887695,-1.009521,-0.1402588,0,0,0,0,0,0
3.049998,-0.9128106,0.5255576,0,0,0,0,0,0,0,0,0,0,0,0,0,0,0,0,-0.002864142,-0.01514741,0.01780014,0.01196289,-1.007935,-0.1436768,0,0,0,0,0,0
3.059998,-0.9300593,0.5184586,0,0,0,0,0,0,0,0,0,0,0,0,0,0,0,0,-0.006727907,-0.01418626,0.01753101,0.0144043,-1.008789,-0.1417236,0,0,0,0,0,0
3.069998,-0.9473591,0.5113361,0,0,0,0,0,0,0,0,0,0,0,0,0,0,0,0,-0.008919258,-0.01368649,0.01876123,0.01086426,-1.005493,-0.144165,0,0,0,0,0,0
3.079998,-0.9557601,0.5036578,0,0,0,0,0,0,0,0,0,0,0,0,0,0,0,0,-0.006497024,-0.005747368,0.009995421,0.01086426,-0.9990234,-0.144165,0,0,0,0,0,0
3.089998,-0.9736622,0.5047147,0,0,0,0,0,0,0,0,0,0,0,0,0,0,0,0,-0.007746798,-0.007746798,0.02374011,0.01147461,-0.9901123,-0.1448975,0,0,0,0,0,0
3.099998,-0.9821059,0.4970172,0,0,0,0,0,0,0,0,0,0,0,0,0,0,0,0,-0.001999247,-0.002748965,0.0124953,0.01196289,-0.9892578,-0.1473389,0,0,0,0,0,0
3.109998,-0.9910758,0.497528,0,0,0,0,0,0,0,0,0,0,0,0,0,0,0,0,0,-0.001153396,0.01061124,0.01062012,-0.987793,-0.1430664,0,0,0,0,0,0
3.119998,-1,0.4980331,0,0,0,0,0,0,0,0,0,0,0,0,0,0,0,0,0.006518021,0.0004806665,0.01701529,0.01574707,-0.989502,-0.1379395,0,0,0,0,0,0
3.129997,-1,0.4980331,0,0,0,0,0,0,0,0,0,0,0,0,0,0,0,0,0.008167872,0.004843247,0.01195365,0.007202148,-0.9941406,-0.1374512,0,0,0,0,0,0
3.139997,-1,0.4980331,0.00011561,0.0001341077,0,0,0,0,0,0,0,0,0,0,0,0,0,0,0.004248055,0.004747826,0.003748283,0.0078125,-0.9969482,-0.1394043,0,0,0,0,0,0
3.149997,-1,0.4898192,0.004560402,0.005654898,0,0,0,0,0,0,0,0,0,0,0,0,0,0,0.00699704,0.0139942,0.0052478,0.00793457,-0.9952393,-0.1428223,0,0,0,0,0,0
3.159997,-1,0.4898192,0.01281963,0.01566844,0,0,0,0,0,0,0,0,0,0,0,0,0,0,0.007746777,0.01849224,0.003998352,0.008789063,-0.9941406,-0.1480713,0,0,0,0,0,0
3.169997,-1,0.4898192,0.02120331,0.0255902,0,0,0,0,0,0,0,0,0,0,0,0,0,0,0.004844264,0.01061124,0,0.005737305,-0.9924316,-0.145874,0,0,0,0,0,0
3.179997,-1,0.4898192,0.029689,0.03543526,0,0,0,0,0,0,0,0,0,0,0,0,0,0,0.008535132,0.01176464,-0.0004613585,0.005126953,-0.9888916,-0.1505127,0,0,0,0,0,0
3.189997,-1,0.4898192,0.03825933,0.04521557,0,0,0,0,0,0,0,0,0,0,0,0,0,0,0.02719773,0.02523714,-0.008457289,0.004760742,-0.9968262,-0.1461182,0,0,0,0,0,0
3.199997,-1,0.4898192,0.04160042,0.05168537,0,0,0,0,0,0,0,0,0,0,0,0,0,0,0.03029483,0.02452805,-0.01422478,0.0004882813,-1.005493,-0.1462402,0,0,0,0,0,0
3.209997,-1,0.4980331,0.04690064,0.05494076,0,0,0,0,0,0,0,0,0,0,0,0,0,0,0.01624256,0.01224439,-0.01249428,-0.002563477,-1.012695,-0.1470947,0,0,0,0,0,0
3.219997,-1,0.5144897,0.05007552,0.06152136,0,0,0,0,0,0,0,0,0,0,0,0,0,0,0.01374371,0.01124485,-0.01749199,-0.0002441406,-1.02124,-0.137207,0,0,0,0,0,0
3.229997,-0.9784681,0.5790934,0.05007552,0.06152136,0,0,0,0,0,0,0,0,0,0,0,0,0,0,0.01445544,0.01899193,-0.03437001,0.008666992,-1.013672,-0.1348877,0,0,0,0,0,0
3.239997,-0.9545932,0.6190876,0.05862615,0.07130207,0,0,0,0,0,0,0,0,0,0,0,0,0,0,0.01658909,0.01803078,-0.03075615,0.01428223,-1.017212,-0.1324463,0,0,0,0,0,0
3.249997,-0.9315377,0.6676687,0.06154599,0.07818004,0,0,0,0,0,0,0,0,0,0,0,0,0,0,0.01391717,0.01535887,-0.01818464,0.01220703,-1.018066,-0.1275635,0,0,0,0,0,0
3.259997,-0.9075292,0.6996371,0.06724153,0.08103468,0,0,0,0,0,0,0,0,0,0,0,0,0,0,0.002748741,0.006247139,-0.0004997711,0.01513672,-1.014648,-0.1300049,0,0,0,0,0,0
3.269997,-0.8749644,0.7311347,0.06724153,0.08103468,0,0,0,0,0,0,0,0,0,0,0,0,0,0,-0.002249051,0.01049562,0.01474378,0.01342773,-1.005737,-0.1331787,0,0,0,0,0,0
3.279997,-0.8593862,0.7554604,0.06724153,0.08103468,0,0,0,0,0,0,0,0,0,0,0,0,0,0,-0.001749341,0.003248777,0.01349492,0.01220703,-0.9967041,-0.133667,0,0,0,0,0,0
3.289997,-0.8358289,0.7878387,0.06724153,0.08103468,0,0,0,0,0,0,0,0,0,0,0,0,0,0,-0.001672374,0.000922717,0.03390863,0.01123047,-0.9890137,-0.1329346,0,0,0,0,0,0
3.299997,-0.8117793,0.8117793,0.06724153,0.08103468,0,0,0,0,0,0,0,0,0,0,0,0,0,0,-0.0006919767,-0.002921883,0.03387019,0.01025391,-0.9854736,-0.1312256,0,0,0,0,0,0
3.309997,-0.779267,0.8352143,0.06724153,0.08103468,0,0,0,0,0,0,0,0,0,0,0,0,0,0,-0.0009995422,-0.002998627,0.01574279,0.005737305,-0.9786377,-0.1307373,0,0,0,0,0,0
3.319997,-0.7396386,0.8755721,0.06724153,0.08103468,0,0,0,0,0,0,0,0,0,0,0,0,0,0,0.0002499059,-0.006247383,0.0289879,0.005737305,-0.979126,-0.1276855,0,0,0,0,0,0
3.329997,-0.7147655,0.8824759,0.06724153,0.08103468,0,0,0,0,0,0,0,0,0,0,0,0,0,0,0.005747632,-0.004997894,0.0289879,0.005493164,-0.9816895,-0.1287842,0,0,0,0,0,0
3.339997,-0.6990393,0.8987648,0.06724153,0.08103468,0,0,0,0,0,0,0,0,0,0,0,0,0,0,0.004613177,-0.00207593,0.01383953,0.008789063,-0.9807129,-0.1276855,0,0,0,0,0,0
3.349997,-0.6670833,0.922732,0.06724153,0.08103468,0,0,0,0,0,0,0,0,0,0,0,0,0,0,0.01470524,-0.002652709,0.03317818,0.008178711,-0.9851074,-0.1295166,0,0,0,0,0,0
3.359997,-0.6592598,0.9309547,0.06724153,0.08103468,0,0,0,0,0,0,0,0,0,0,0,0,0,0,0.02072284,-0.002864284,0.03823536,0.008789063,-0.9876709,-0.128418,0,0,0,0,0,0
3.369997,-0.6430523,0.9386168,0.06724153,0.08103468,0,0,0,0,0,0,0,0,0,0,0,0,0,0,0.01374371,-0.001999084,0.02298947,0.009155273,-0.9956055,-0.131958,0,0,0,0,0,0
3.379997,-0.6185194,0.9457361,0.06724153,0.08103468,0,0,0,0,0,0,0,0,0,0,0,0,0,0,0.02249068,-0.005997477,0.04623072,0.004394531,-1.006714,-0.1298828,0,0,0,0,0,0
3.389997,-0.6018312,0.9445959,0.06724153,0.08103468,0,0,0,0,0,0,0,0,0,0,0,0,0,0,0.01599329,-0.008996267,0.04872968,0.004272461,-1.00354,-0.1304932,0,0,0,0,0,0
3.399997,-0.5774385,0.9517779,0.06724153,0.08103468,0,0,0,0,0,0,0,0,0,0,0,0,0,0,0.006459019,-0.006459019,0.02306793,0.005371094,-1.004639,-0.1264648,0,0,0,0,0,0
3.409997,-0.5531238,0.9590133,0.06724153,0.08103468,0,0,0,0,0,0,0,0,0,0,0,0,0,0,0.01514741,-0.01612779,0.04801799,0.001464844,-1.010132,-0.1289063,0,0,0,0,0,0
3.419997,-0.5448537,0.9584652,0.06724153,0.08103468,0,0,0,0,0,0,0,0,0,0,0,0,0,0,0.005248024,-0.008746706,0.02249153,0.002807617,-1.014282,-0.130249,0,0,0,0,0,0
3.429997,-0.5448537,0.9584652,0.06724153,0.08103468,0,0,0,0,0,0,0,0,0,0,0,0,0,0,0.007246946,-0.0174927,0.03623483,0.002075195,-1.008667,-0.1306152,0,0,0,0,0,0
3.439997,-0.5448537,0.9584652,0.06724153,0.08103468,0,0,0,0,0,0,0,0,0,0,0,0,0,0,0.005497645,-0.01524361,0.03123694,-0.005371094,-1.017944,-0.1306152,0,0,0,0,0,0
3.449997,-0.5448537,0.9584652,0.06724153,0.08103468,0,0,0,0,0,0,0,0,0,0,0,0,0,0,-0.003498398,-0.006497024,0.01499313,-0.008300781,-1.022095,-0.1328125,0,0,0,0,0,0
3.459997,-0.5453978,0.9673843,0.06435483,0.07425557,0,0,0,0,0,0,0,0,0,0,0,0,0,0,-0.01322513,-0.008861639,0.02548914,-0.008789063,-1.014526,-0.1374512,0,0,0,0,0,0
3.469997,-0.5453978,0.9673843,0.05247455,0.05814747,0,0,0,0,0,0,0,0,0,0,0,0,0,0,-0.005498378,-0.00399882,0.01099676,-0.01037598,-1.002563,-0.1417236,0,0,0,0,0,0
3.479997,-0.5376719,0.9757748,0.02219683,0.02362888,0,0,0,0,0,0,0,0,0,0,0,0,0,0,-0.004997976,-0.0104956,0.01424407,-0.01184082,-1.008179,-0.138916,0,0,0,0,0,0
3.489997,-0.5376719,0.9757748,0.004317139,0.004636928,0,0,0,0,0,0,0,0,0,0,0,0,0,0,0.004248054,-0.01199451,0.01274416,-0.01135254,-0.9974365,-0.1390381,0,0,0,0,0,0
3.499997,-0.5376719,0.9757748,0,0,0,0,0,0,0,0,0,0,0,0,0,0,0,0,0.007747083,-0.007747083,0.004248401,-0.01379395,-1.001099,-0.1381836,0,0,0,0,0,0
3.509997,-0.5376719,0.9757748,0,0,0,0,0,0,0,0,0,0,0,0,0,0,0,0,0.01799251,-0.01774261,0.01724275,-0.01306152,-1.013184,-0.1347656,0,0,0,0,0,0
3.519997,-0.5376719,0.9757748,0,0,0,0,0,0,0,0,0,0,0,0,0,0,0,0,0.006247139,-0.008496109,0.01324393,-0.02490234,-1.00647,-0.1339111,0,0,0,0,0,0
3.529997,-0.5376719,0.9757748,0,0,0,0,0,0,0,0,0,0,0,0,0,0,0,0,0.01374371,-0.02273959,0.03023615,-0.0213623,-1.003052,-0.1328125,0,0,0,0,0,0
3.539997,-0.5376719,0.9757748,0,0,0,0,0,0,0,0,0,0,0,0,0,0,0,0,0.01999172,-0.0234902,0.03298628,-0.01672363,-1.002075,-0.1347656,0,0,0,0,0,0
3.549997,-0.5376719,0.9757748,0,0,0,0,0,0,0,0,0,0,0,0,0,0,0,0,0.02639373,-0.02210692,0.03911962,-0.01843262,-0.9997559,-0.1325684,0,0,0,0,0,0
3.559997,-0.5376719,0.9757748,0,0,0,0,0,0,0,0,0,0,0,0,0,0,0,0,0.02456642,-0.01997225,0.0408288,-0.02148438,-1.010498,-0.1240234,0,0,0,0,0,0
3.569997,-0.5376719,0.9757748,0,0,0,0,0,0,0,0,0,0,0,0,0,0,0,0,0.003998169,-0.009245765,0.02024073,-0.02966309,-0.9916992,-0.137207,0,0,0,0,0,0
3.579997,-0.5376719,0.9757748,0,0,0,0,0,0,0,0,0,0,0,0,0,0,0,0,0.018992,-0.01799247,0.02748845,-0.02197266,-0.9980469,-0.1236572,0,0,0,0,0,0
3.589997,-0.5376719,0.9757748,0,0,0,0,0,0,0,0,0,0,0,0,0,0,0,0,-0.0004998118,-0.007247271,0.007497177,-0.02954102,-0.9927979,-0.1188965,0,0,0,0,0,0
3.599997,-0.5376719,0.9757748,0,0,0,0,0,0,0,0,0,0,0,0,0,0,0,0,-0.01266775,-0.01276378,-0.0008843043,-0.03063965,-0.9946289,-0.1258545,0,0,0,0,0,0
3.609997,-0.5294175,0.9752428,0,0,0,0,0,0,0,0,0,0,0,0,0,0,0,0,-0.01997231,-0.01178346,-0.0124177,-0.02819824,-0.9793701,-0.1276855,0,0,0,0,0,0
3.619997,-0.5299455,0.9841844,0,0,0,0,0,0,0,0,0,0,0,0,0,0,0,0,-0.007996337,-0.004747826,-0.009995421,-0.03259277,-0.9882813,-0.1287842,0,0,0,0,0,0
3.629997,-0.5299455,0.9841844,0,0,0,0,0,0,0,0,0,0,0,0,0,0,0,0,-0.01124528,-0.006747195,-0.01999166,-0.02868652,-0.9899902,-0.1282959,0,0,0,0,0,0
3.639997,-0.5216986,0.9836607,0,0,0,0,0,0,0,0,0,0,0,0,0,0,0,0,-0.006997935,-0.006748049,-0.01899439,-0.02258301,-0.9962158,-0.1280518,0,0,0,0,0,0
3.649997,-0.5216986,0.9836607,0,0,0,0,0,0,0,0,0,0,0,0,0,0,0,0,-0.007208472,-0.004824895,-0.0115913,-0.0177002,-0.9958496,-0.1279297,0,0,0,0,0,0
3.659997,-0.5216986,0.9836607,0,0,0,0,0,0,0,0,0,0,0,0,0,0,0,0,-0.0002499059,-0.002402824,-0.005094048,-0.01818848,-1.000244,-0.1306152,0,0,0,0,0,0
3.669997,-0.5216986,0.9836607,0,0,0,0,0,0,0,0,0,0,0,0,0,0,0,0,0.001845434,-0.001845434,0.000922717,-0.01843262,-1.001953,-0.1312256,0,0,0,0,0,0
3.679997,-0.5216986,0.9836607,0,0,0,0,0,0,0,0,0,0,0,0,0,0,0,0,0.009245765,-0.004248054,0.01049519,-0.02270508,-1.002319,-0.1326904,0,0,0,0,0,0
3.689997,-0.5134615,0.9831394,0,0,0,0,0,0,0,0,0,0,0,0,0,0,0,0,0.01374424,-0.006247403,0.01599329,-0.02380371,-1.005371,-0.1312256,0,0,0,0,0,0
3.699997,-0.5134615,0.9831394,0,0,0,0,0,0,0,0,0,0,0,0,0,0,0,0,0.01656917,-0.007650258,0.02037507,-0.02929688,-1.012207,-0.1243896,0,0,0,0,0,0
3.709997,-0.5134615,0.9831394,0,0,0,0,0,0,0,0,0,0,0,0,0,0,0,0,0.02087576,-0.008400281,0.02375915,-0.03295898,-1.010254,-0.1253662,0,0,0,0,0,0
3.719997,-0.5134615,0.9831394,0,0,0,0,0,0,0,0,0,0,0,0,0,0,0,0,0.01360887,-0.004843837,0.01245558,-0.03564453,-1.014648,-0.1237793,0,0,0,0,0,0
3.729997,-0.5134615,0.9831394,0,0,0,0,0,0,0,0,0,0,0,0,0,0,0,0,0.02668097,-0.01082233,0.02787276,-0.03808594,-1.015015,-0.1202393,0,0,0,0,0,0
3.739997,-0.5052344,0.9826212,0,0,0,0,0,0,0,0,0,0,0,0,0,0,0,0,0.02523942,-0.01274469,0.02848811,-0.03735352,-1.016968,-0.1218262,0,0,0,0,0,0
3.749997,-0.5052344,0.9826212,0,0,0,0,0,0,0,0,0,0,0,0,0,0,0,0,0.007496567,-0.006996796,0.01249428,-0.03869629,-1.015381,-0.1229248,0,0,0,0,0,0
3.759997,-0.5052344,0.9826212,0,0,0,0,0,0,0,0,0,0,0,0,0,0,0,0,0.008649067,-0.01320422,0.02189182,-0.03540039,-1.005249,-0.1221924,0,0,0,0,0,0
3.769997,-0.5052344,0.9826212,0,0,0,0,0,0,0,0,0,0,0,0,0,0,0,0,0.001383953,-0.005535814,0.008534378,-0.03564453,-1.004028,-0.1224365,0,0,0,0,0,0
3.779997,-0.5052344,0.9826212,0,0,0,0,0,0,0,0,0,0,0,0,0,0,0,0,0.003882931,-0.008650166,0.01172582,-0.03417969,-0.9904785,-0.1241455,0,0,0,0,0,0
3.789997,-0.4970172,0.9821059,0,0,0,0,0,0,0,0,0,0,0,0,0,0,0,0,0.00724662,-0.005997192,0.007669485,-0.03430176,-0.989502,-0.1252441,0,0,0,0,0,0
3.799997,-0.4970172,0.9821059,0,0,0,0,0,0,0,0,0,0,0,0,0,0,0,0,0.005747836,-0.0009996236,0.001749341,-0.0333252,-0.9904785,-0.1243896,0,0,0,0,0,0
3.809997,-0.4970172,0.9821059,0,0,0,0,0,0,0,0,0,0,0,0,0,0,0,0,0.01705045,0.002152938,0,-0.02514648,-0.9954834,-0.1226807,0,0,0,0,0,0
3.819997,-0.4970172,0.9821059,0,0,0,0,0,0,0,0,0,0,0,0,0,0,0,0,0.008072349,0.001845108,-0.0004612771,-0.02624512,-0.9970703,-0.1237793,0,0,0,0,0,0
3.829997,-0.4970172,0.9821059,0,0,0,0,0,0,0,0,0,0,0,0,0,0,0,0,0.0117445,0.003344584,-0.0009418622,-0.0234375,-1.002808,-0.1206055,0,0,0,0,0,0
3.839997,-0.4970172,0.9821059,0,0,0,0,0,0,0,0,0,0,0,0,0,0,0,0,0.01032252,0.00236433,-0.001441694,-0.02404785,-1.005371,-0.1137695,0,0,0,0,0,0
3.849997,-0.4970172,0.9821059,0,0,0,0,0,0,0,0,0,0,0,0,0,0,0,0,0.004248055,0,0,-0.02563477,-1.008789,-0.119873,0,0,0,0,0,0
3.859997,-0.4970172,0.9821059,0,0,0,0,0,0,0,0,0,0,0,0,0,0,0,0,0.009130731,-0.005286213,0.001172603,-0.02832031,-1.010376,-0.119873,0,0,0,0,0,0
3.869997,-0.4970172,0.9821059,0,0,0,0,0,0,0,0,0,0,0,0,0,0,0,0,0.00791937,-0.00718894,0.004805444,-0.02746582,-1.013184,-0.1181641,0,0,0,0,0,0
3.879997,-0.4970172,0.9821059,0,0,0,0,0,0,0,0,0,0,0,0,0,0,0,0,0.004152226,-0.004382906,0.002537472,-0.02722168,-1.009521,-0.1175537,0,0,0,0,0,0
3.889997,-0.4970172,0.9821059,0,0,0,0,0,0,0,0,0,0,0,0,0,0,0,0,0.008861639,-0.01084152,0.002595091,-0.02783203,-1.01062,-0.1220703,0,0,0,0,0,0
3.899997,-0.4970172,0.9821059,0,0,0,0,0,0,0,0,0,0,0,0,0,0,0,0,0.007688711,-0.01249416,-0.0007688833,-0.0291748,-1.004395,-0.1248779,0,0,0,0,0,0
3.909997,-0.4970172,0.9821059,0,0,0,0,0,0,0,0,0,0,0,0,0,0,0,0,0.00549793,-0.007497177,-0.002998871,-0.02941895,-0.9975586,-0.1228027,0,0,0,0,0,0
3.919997,-0.4970172,0.9821059,0,0,0,0,0,0,0,0,0,0,0,0,0,0,0,0,0.01178395,-0.01295657,-0.008650532,-0.02807617,-1.002441,-0.1226807,0,0,0,0,0,0
3.929997,-0.497528,0.9910758,0,0,0,0,0,0,0,0,0,0,0,0,0,0,0,0,0.01387892,-0.01780037,-0.01312927,-0.02636719,-1.006592,-0.1208496,0,0,0,0,0,0
3.939997,-0.497528,0.9910758,0,0,0,0,0,0,0,0,0,0,0,0,0,0,0,0,0.003998494,-0.004748212,-0.002499059,-0.02758789,-1.010864,-0.1220703,0,0,0,0,0,0
3.949997,-0.497528,0.9910758,0,0,0,0,0,0,0,0,0,0,0,0,0,0,0,0,0.003633045,-0.008900052,-0.0004805648,-0.02575684,-1.012817,-0.1212158,0,0,0,0,0,0
3.959997,-0.497528,0.9910758,0,0,0,0,0,0,0,0,0,0,0,0,0,0,0,0,0.0009995829,-0.008246569,-0.000749677,-0.02307129,-1.008545,-0.1196289,0,0,0,0,0,0
3.969997,-0.497528,0.9910758,0,0,0,0,0,0,0,0,0,0,0,0,0,0,0,0,-0.0002498855,-0.003748283,-0.001499313,-0.02539063,-1.00769,-0.1188965,0,0,0,0,0,0
3.979997,-0.497528,0.9910758,0.0230957,0.002685547,0,0,0,0,0,0,0,0,0,0,0,0,0,0,-0.00174926,-0.007746757,-0.002498957,-0.0291748,-1.006592,-0.1188965,0,0,0,0,0,0
3.989997,-0.497528,0.9910758,0.04135928,0.004399924,0,0,0,0,0,0,0,0,0,0,0,0,0,0,-0.0007496566,-0.003248512,-0.0007496566,-0.02856445,-1.006592,-0.1187744,0,0,0,0,0,0
3.999997,-0.497528,0.9910758,0.05966556,0.005849564,0,0,0,0,0,0,0,0,0,0,0,0,0,0,-0.004786401,-0.005536119,-0.001172541,-0.02734375,-1.004395,-0.1148682,0,0,0,0,0,0
4.009997,-0.497528,0.9910758,0.08718024,0.00764739,0,0,0,0,0,0,0,0,0,0,0,0,0,0,-0.003460189,-0.002537472,0,-0.02954102,-1.005859,-0.1196289,0,0,0,0,0,0
4.019997,-0.497528,0.9910758,0.1055495,0.008651596,0,0,0,0,0,0,0,0,0,0,0,0,0,0,-0.008746381,-0.004248237,-0.0002498855,-0.02941895,-1.005005,-0.1173096,0,0,0,0,0,0
4.029997,-0.5052344,0.9826212,0.1239339,0.009533376,0,0,0,0,0,0,0,0,0,0,0,0,0,0,-0.01249428,-0.003248512,-0.001499313,-0.03210449,-1.004517,-0.1152344,0,0,0,0,0,0
4.039998,-0.5047147,0.9736622,0.14233,0.01031377,0,0,0,0,0,0,0,0,0,0,0,0,0,0,-0.007747083,-0.001249529,-0.0007497177,-0.03369141,-1.003174,-0.1164551,0,0,0,0,0,0
4.049998,-0.5031205,0.9468173,0.1699411,0.0113294,0,0,0,0,0,0,0,0,0,0,0,0,0,0,-0.01064925,-0.0009611296,-0.003594633,-0.03613281,-0.9956055,-0.1210938,0,0,0,0,0,0
4.059998,-0.5003413,0.9021901,0.188357,0.01192133,0,0,0,0,0,0,0,0,0,0,0,0,0,0,-0.001710786,-0.002133732,-0.008131189,-0.03527832,-0.9995117,-0.1184082,0,0,0,0,0,0
4.069998,-0.498002,0.8666019,0.2067784,0.01245653,0,0,0,0,0,0,0,0,0,0,0,0,0,0,0.0002306589,-0.0006919767,-0.006458449,-0.02941895,-1.005859,-0.1165771,0,0,0,0,0,0
4.079998,-0.4967919,0.8488493,0.2159908,0.01270534,0,0,0,0,0,0,0,0,0,0,0,0,0,0,0.0007496566,0.0004997711,-0.007246681,-0.0279541,-1.007568,-0.1177979,0,0,0,0,0,0
4.089999,-0.4949245,0.8222761,0.2436337,0.01338647,0,0,0,0,0,0,0,0,0,0,0,0,0,0,-0.002498896,0.001999166,-0.01399416,-0.02783203,-1.014893,-0.1149902,0,0,0,0,0,0
4.099999,-0.4916665,0.7781494,0.2805015,0.01416674,0,0,0,0,0,0,0,0,0,0,0,0,0,0,-0.01756942,0.0002306792,-0.01464762,-0.0291748,-1.006226,-0.1253662,0,0,0,0,0,0
4.109999,-0.4882178,0.7342489,0.2989388,0.01451159,0,0,0,0,0,0,0,0,0,0,0,0,0,0,-0.0160694,-0.0009803155,-0.01635774,-0.0234375,-0.9973145,-0.1246338,0,0,0,0,0,0
4.119999,-0.4822791,0.6645579,0.317378,0.01483075,0,0,0,0,0,0,0,0,0,0,0,0,0,0,-0.008995879,-0.002498855,-0.01674233,-0.02209473,-1.001343,-0.1247559,0,0,0,0,0,0
4.13,-0.4766353,0.6042385,0.3358189,0.01512698,0,0,0,0,0,0,0,0,0,0,0,0,0,0,-0.008996246,-0.002498937,-0.01099537,-0.01794434,-1.007813,-0.1218262,0,0,0,0,0,0
4.14,-0.4714545,0.5531238,0.3542611,0.01540266,0,0,0,0,0,0,0,0,0,0,0,0,0,0,-0.00299883,-0.002537472,-0.001614755,-0.0201416,-1.01355,-0.1158447,0,0,0,0,0,0
4.15,-0.4659576,0.5026472,0.3911491,0.01590037,0,0,0,0,0,0,0,0,0,0,0,0,0,0,-0.01255243,-0.003344706,0.004824895,-0.01733398,-1.015625,-0.1195068,0,0,0,0,0,0
4.16,-0.4621235,0.4694011,0.4188176,0.01623324,0,0,0,0,0,0,0,0,0,0,0,0,0,0,-0.009745537,-0.0004997711,0.004747826,-0.02233887,-1.01355,-0.1204834,0,0,0,0,0,0
4.170001,-0.4303322,0.4089934,0.4373835,0.02302018,0,0,0,0,0,0,0,0,0,0,0,0,0,0,-0.0234902,0,0.00999585,-0.02282715,-1.005615,-0.1228027,0,0,0,0,0,0
4.180001,-0.4084555,0.3665626,0.4557115,0.0166318,0,0,0,0,0,0,0,0,0,0,0,0,0,0,-0.02623906,0,0.008746341,-0.02368164,-1.008911,-0.1229248,0,0,0,0,0,0
4.190001,-0.3579839,0.2977623,0.4833834,0.01690152,0,0,0,0,0,0,0,0,0,0,0,0,0,0,-0.02714229,-0.001211036,0.005286213,-0.02661133,-1.01001,-0.1237793,0,0,0,0,0,0
4.200001,-0.31745,0.2469055,0.5018321,0.01706912,0,0,0,0,0,0,0,0,0,0,0,0,0,0,-0.03175569,-0.001903053,0.005536098,-0.0267334,-1.013306,-0.1170654,0,0,0,0,0,0
4.210001,-0.2635252,0.1746964,0.5295059,0.01730411,0,0,0,0,0,0,0,0,0,0,0,0,0,0,-0.04098292,-0.001999166,0.008496474,-0.02587891,-1.008911,-0.1181641,0,0,0,0,0,0
4.220002,-0.2325748,0.1429074,0.5387307,0.01737841,0,0,0,0,0,0,0,0,0,0,0,0,0,0,-0.04248226,-0.002748863,0.01174507,-0.0213623,-1.006226,-0.1209717,0,0,0,0,0,0
4.230002,-0.1994827,0.106218,0.5571806,0.0175214,0,0,0,0,0,0,0,0,0,0,0,0,0,0,-0.02373913,-0.001999084,0.007996337,-0.0246582,-1.003662,-0.1212158,0,0,0,0,0,0
4.240002,-0.1573682,0.07070164,0.5848561,0.01772291,0,0,0,0,0,0,0,0,0,0,0,0,0,0,-0.04723034,-0.004997894,0.01274473,-0.02124023,-0.9893799,-0.1279297,0,0,0,0,0,0
4.250002,-0.1163072,0.04385352,0.6033068,0.01784931,0,0,0,0,0,0,0,0,0,0,0,0,0,0,-0.03794378,-0.005766533,0.007169713,-0.02148438,-0.9892578,-0.1290283,0,0,0,0,0,0
4.260003,-0.06599432,0.01941009,0.6217576,0.01796987,0,0,0,0,0,0,0,0,0,0,0,0,0,0,-0.01724351,-0.003498683,0.0007497177,-0.02001953,-0.9869385,-0.1317139,0,0,0,0,0,0
4.270003,0,0,0.6402088,0.01808499,0,0,0,0,0,0,0,0,0,0,0,0,0,0,-0.03273765,-0.006247668,-0.003748527,-0.0246582,-0.9987793,-0.1287842,0,0,0,0,0,0
4.280003,0,0,0.6586601,0.01819503,0,0,0,0,0,0,0,0,0,0,0,0,0,0,-0.01999247,-0.002249153,-0.002249153,-0.02172852,-1.009521,-0.1289063,0,0,0,0,0,0
4.290003,0,0,0.6863376,0.01835127,0,0,0,0,0,0,0,0,0,0,0,0,0,0,-0.05347734,-0.003613839,-0.003844518,-0.02099609,-1.023071,-0.1308594,0,0,0,0,0,0
4.300004,0,0,0.7140154,0.01849781,0,0,0,0,0,0,0,0,0,0,0,0,0,0,-0.06597249,-0.004248237,-0.002249072,-0.02441406,-1.016113,-0.1271973,0,0,0,0,0,0
4.310004,0,0,0.7416935,0.01863552,0,0,0,0,0,0,0,0,0,0,0,0,0,0,-0.06774613,-0.003344991,-0.001903175,-0.02050781,-1.006226,-0.1351318,0,0,0,0,0,0
4.320004,0,0,0.7693719,0.01876517,0,0,0,0,0,0,0,0,0,0,0,0,0,0,-0.03048852,-0.002249153,-0.0004998118,-0.01513672,-0.9940186,-0.1381836,0,0,0,0,0,0
4.330004,0,0,0.7970507,0.01888746,0,0,0,0,0,0,0,0,0,0,0,0,0,0,-0.02024238,-0.002499059,-0.003748589,-0.01623535,-0.9954834,-0.1414795,0,0,0,0,0,0
4.340004,0,0,0.8247297,0.01900299,0,0,0,0,0,0,0,0,0,0,0,0,0,0,-0.02898784,-0.00649731,-0.01699299,-0.02148438,-0.9990234,-0.147583,0,0,0,0,0,0
4.350005,0,0,0.8431824,0.01907653,0,0,0,0,0,0,0,0,0,0,0,0,0,0,-0.01799247,-0.005997477,-0.02473973,-0.01953125,-0.9953613,-0.1496582,0,0,0,0,0,0
4.360005,0,0,0.8616353,0.01914745,0,0,0,0,0,0,0,0,0,0,0,0,0,0,-0.0009995422,0.001249428,-0.01199451,-0.01916504,-0.982666,-0.1591797,0,0,0,0,0,0
4.370005,0,0,0.8708618,0.01918198,0,0,0,0,0,0,0,0,0,0,0,0,0,0,-0.0006920377,0.000922717,-0.01568619,-0.02355957,-0.9916992,-0.1499023,0,0,0,0,0,0
4.380005,0,0,0.8893543,0.02695013,0,0,0,0,0,0,0,0,0,0,0,0,0,0,0.002268624,-0.001672333,-0.04252034,-0.02148438,-0.9812012,-0.1582031,0,0,0,0,0,0
4.390006,0,0,0.8985412,0.019282,0,0,0,0,0,0,0,0,0,0,0,0,0,0,0.01105205,0.0009995422,-0.04547689,-0.02453613,-0.9888916,-0.1602783,0,0,0,0,0,0
4.400006,0,0,0.8985412,0.019282,0,0,0,0,0,0,0,0,0,0,0,0,0,0,0.004998118,0.002249153,-0.0252405,-0.01831055,-0.9874268,-0.1578369,0,0,0,0,0,0
4.410006,0,0,0.9077677,0.01931421,0,0,0,0,0,0,0,0,0,0,0,0,0,0,0.004248055,0.002998627,-0.02198993,-0.01940918,-0.9898682,-0.1563721,0,0,0,0,0,0
4.420006,0,0,0.9170319,0.02708533,0,0,0,0,0,0,0,0,0,0,0,0,0,0,0.01099543,0.008996286,-0.03473542,-0.01806641,-0.9996338,-0.1508789,0,0,0,0,0,0
4.430007,0,0,0.9262208,0.01937701,0,0,0,0,0,0,0,0,0,0,0,0,0,0,0.007977437,0.01080308,-0.02360542,-0.01464844,-1.002319,-0.149292,0,0,0,0,0,0
4.440007,0,0,0.9354475,0.01940762,0,0,0,0,0,0,0,0,0,0,0,0,0,0,0.00207593,0.005535814,-0.007381084,-0.02062988,-1.000244,-0.1474609,0,0,0,0,0,0
4.450007,0,0,0.9446741,0.01943774,0,0,0,0,0,0,0,0,0,0,0,0,0,0,0.003460189,0.00599766,-0.006689698,-0.02368164,-0.9996338,-0.1464844,0,0,0,0,0,0
4.460007,0,0,0.9446741,0.01943774,0,0,0,0,0,0,0,0,0,0,0,0,0,0,0.004843837,0.007381084,-0.006458449,-0.02124023,-1.003906,-0.145752,0,0,0,0,0,0
4.470007,0,0,0.9446741,0.01943774,0,0,0,0,0,0,0,0,0,0,0,0,0,0,0.01226401,0.0148783,-0.01005345,-0.01855469,-1.011108,-0.1373291,0,0,0,0,0,0
4.480008,0,0,0.9446741,0.01943774,0,0,0,0,0,0,0,0,0,0,0,0,0,0,0.01099539,0.01424403,-0.008496433,-0.01867676,-1.011841,-0.1383057,0,0,0,0,0,0
4.490008,0,0,0.9539359,0.02725531,0,0,0,0,0,0,0,0,0,0,0,0,0,0,0.009495651,0.01199451,-0.003498398,-0.0168457,-1.011963,-0.1342773,0,0,0,0,0,0
4.500008,0,0,0.9539006,0.01946736,0,0,0,0,0,0,0,0,0,0,0,0,0,0,0.01499384,0.009246111,0.0002498855,-0.006958008,-1.006714,-0.1325684,0,0,0,0,0,0
4.510008,0,0,0.9631273,0.0194965,0,0,0,0,0,0,0,0,0,0,0,0,0,0,0.007747083,0.003998494,0.002499059,-0.01831055,-1.008179,-0.131958,0,0,0,0,0,0
4.520009,0,0,0.9631273,0.0194965,0,0,0,0,0,0,0,0,0,0,0,0,0,0,0.004747826,0.003998169,0.002748741,-0.01586914,-1.005249,-0.1325684,0,0,0,0,0,0
4.530009,0,0,0.9631273,0.0194965,0,0,0,0,0,0,0,0,0,0,0,0,0,0,0.002998871,0.004748212,0.003248777,-0.01574707,-0.9975586,-0.1351318,0,0,0,0,0,0
4.540009,0,0,0.9723539,0.01952518,0,0,0,0,0,0,0,0,0,0,0,0,0,0,0.01349433,0.0104956,0.003998352,-0.01501465,-0.9903564,-0.1369629,0,0,0,0,0,0
4.550009,0,0,0.9723539,0.01952518,0,0,0,0,0,0,0,0,0,0,0,0,0,0,0.01635774,0.01128318,-0.001749199,-0.01452637,-0.9937744,-0.1351318,0,0,0,0,0,0
4.560009,0,0,0.972388,0.02733621,0,0,0,0,0,0,0,0,0,0,0,0,0,0,0.007996337,0.00674691,-0.004997711,-0.01818848,-0.9936523,-0.1363525,0,0,0,0,0,0
4.57001,0,0,0.972388,0.02733621,0,0,0,0,0,0,0,0,0,0,0,0,0,0,0.007747083,0.007996988,-0.00674746,-0.01721191,-0.9908447,-0.1365967,0,0,0,0,0,0
4.58001,0,0,0.9723539,0.01952518,0,0,0,0,0,0,0,0,0,0,0,0,0,0,0.01924198,0.01724284,-0.01924198,-0.01245117,-0.994873,-0.1317139,0,0,0,0,0,0
4.59001,0,0,0.9723539,0.01952518,0,0,0,0,0,0,0,0,0,0,0,0,0,0,0.009745537,0.009245765,-0.01174462,-0.008544922,-0.9960938,-0.1337891,0,0,0,0,0,0
4.60001,0,0,0.9815806,0.0195534,0,0,0,0,0,0,0,0,0,0,0,0,0,0,0.008746706,0.009496424,-0.01424464,-0.0009765625,-0.9935303,-0.1343994,0,0,0,0,0,0
4.610011,0,0,0.9815806,0.0195534,0,0,0,0,0,0,0,0,0,0,0,0,0,0,0.01854976,0.02116406,-0.03219784,0.002075195,-0.987793,-0.1368408,0,0,0,0,0,0
4.620011,0,0,0.9908072,0.01958117,0,0,0,0,0,0,0,0,0,0,0,0,0,0,0.0245483,0.02283741,-0.03319883,0.003417969,-0.9876709,-0.1365967,0,0,0,0,0,0
4.630011,0,0,0.9908072,0.01958117,0,0,0,0,0,0,0,0,0,0,0,0,0,0,0.029121,0.02427711,-0.03654061,0.0006103516,-0.9919434,-0.1334229,0,0,0,0,0,0
4.640011,0,0,0.9908403,0.02741455,0,0,0,0,0,0,0,0,0,0,0,0,0,0,0.01624256,0.01374371,-0.01999084,0.001953125,-0.9991455,-0.1359863,0,0,0,0,0,0
4.650012,0,0,0.9908072,0.01958117,0,0,0,0,0,0,0,0,0,0,0,0,0,0,0.01449454,0.01424464,-0.021242,0.004272461,-1.003296,-0.1361084,0,0,0,0,0,0
4.660012,0,0,0.9908403,0.02741455,0,0,0,0,0,0,0,0,0,0,0,0,0,0,0.02523844,0.02898672,-0.03698306,0.003173828,-1.009644,-0.1337891,0,0,0,0,0,0
4.670012,0,0,0.9908072,0.01958117,0,0,0,0,0,0,0,0,0,0,0,0,0,0,0.02306711,0.02716151,-0.02937207,0.002807617,-1.010498,-0.1313477,0,0,0,0,0,0
4.680012,0,0,1,0.01960851,0,0,0,0,0,0,0,0,0,0,0,0,0,0,0.008995697,0.0117636,-0.009918332,0.002075195,-1.011475,-0.1296387,0,0,0,0,0,0
4.690012,0,0,1,0.02745281,0,0,0,0,0,0,0,0,0,0,0,0,0,0,0.00622779,0.01107163,-0.006919767,0.002807617,-1.012695,-0.1323242,0,0,0,0,0,0
4.700013,0,0,1,0.01960851,0,0,0,0,0,0,0,0,0,0,0,0,0,0,0.01130288,0.01726192,-0.0122448,0.001098633,-1.004517,-0.1271973,0,0,0,0,0,0
4.710013,0,0,1,0.02745281,0,0,0,0,0,0,0,0,0,0,0,0,0,0,0.01416706,0.01245627,-0.01201412,-0.0006103516,-1.000122,-0.1269531,0,0,0,0,0,0
4.720013,0,0,1,0.01960851,0,0,0,0,0,0,0,0,0,0,0,0,0,0,0.008746706,0.003998494,-0.009996235,0.001586914,-0.9998779,-0.1304932,0,0,0,0,0,0
4.730013,0,0,1,0.01960851,0,0,0,0,0,0,0,0,0,0,0,0,0,0,0.008496801,0.001499435,-0.01199548,-0.002441406,-1.000488,-0.1286621,0,0,0,0,0,0
4.740014,0,0,1,0.01960851,0,0,0,0,0,0,0,0,0,0,0,0,0,0,0.01512819,0.0004805648,-0.02785355,-0.002197266,-1.006104,-0.1268311,0,0,0,0,0,0
4.750014,0,0,1,0.01960851,0,0,0,0,0,0,0,0,0,0,0,0,0,0,0.0111102,0.00073043,-0.02762169,-0.001708984,-1.014526,-0.1254883,0,0,0,0,0,0
4.760014,0,0,1,0.01960851,0,0,0,0,0,0,0,0,0,0,0,0,0,0,0.004574989,0,-0.02070278,0.004150391,-1.008911,-0.1278076,0,0,0,0,0,0
4.770014,0,0,1,0.01960851,0,0,0,0,0,0,0,0,0,0,0,0,0,0,0.001845434,-0.0004613585,-0.00599766,0.005004883,-1.01001,-0.1251221,0,0,0,0,0,0
4.780015,0,0,1,0.01960851,0,0,0,0,0,0,0,0,0,0,0,0,0,0,-0.0007496566,-0.0004997711,-0.003998169,0.007324219,-1.010254,-0.1262207,0,0,0,0,0,0
4.790015,0,0,1,0.01960851,0,0,0,0,0,0,0,0,0,0,0,0,0,0,-0.005747632,-0.00174928,-0.0007496566,0.009887695,-1.003662,-0.1260986,0,0,0,0,0,0
4.800015,0,0,1,0.02745281,0,0,0,0,0,0,0,0,0,0,0,0,0,0,-0.003248777,-0.001999247,0.0002499059,0.01049805,-0.9967041,-0.1253662,0,0,0,0,0,0
4.810015,0,0,1,0.02745281,0,0,0,0,0,0,0,0,0,0,0,0,0,0,0.001749199,-0.001249428,0.0007496566,0.007568359,-1.000854,-0.1252441,0,0,0,0,0,0
4.820015,0,0,1,0.01960851,0,0,0,0,0,0,0,0,0,0,0,0,0,0,0.0007497177,-0.001999247,0.001249529,0.006103516,-1.005493,-0.1258545,0,0,0,0,0,0
4.830016,0,0,1,0.02745281,0,0,0,0,0,0,0,0,0,0,0,0,0,0,-0.002864284,-0.003364096,0.004767398,0.00402832,-1.007568,-0.1264648,0,0,0,0,0,0
4.840016,0,0,1,0.01960851,0,0,0,0,0,0,0,0,0,0,0,0,0,0,0.0002498855,-0.003998169,0.008745994,0.003051758,-1.001709,-0.1237793,0,0,0,0,0,0
4.850016,0,0,1,0.01960851,0,0,0,0,0,0,0,0,0,0,0,0,0,0,0.001211015,-0.005286213,0.009149937,0.0008544922,-1.000244,-0.1260986,0,0,0,0,0,0
4.860016,0,0,1,0.01960851,0,0,0,0,0,0,0,0,0,0,0,0,0,0,0,-0.002499059,0.003748589,0.001098633,-0.9995117,-0.1286621,0,0,0,0,0,0
4.870017,0,0,1,0.01960851,0,0,0,0,0,0,0,0,0,0,0,0,0,0,-0.0004998118,-0.003248777,0.001249529,0.001342773,-1.000488,-0.1308594,0,0,0,0,0,0
4.880017,0,0,1,0.01960851,0,0,0,0,0,0,0,0,0,0,0,0,0,0,0.001249428,-0.006497025,0.0002498855,0.001098633,-0.9989014,-0.1282959,0,0,0,0,0,0
4.890017,0,0,1,0.01960851,0,0,0,0,0,0,0,0,0,0,0,0,0,0,0.001999166,-0.006997081,0.0004997915,0.0002441406,-0.9976807,-0.1300049,0,0,0,0,0,0
4.900017,0,0,1,0.01960851,0,0,0,0,0,0,0,0,0,0,0,0,0,0,0.002998769,-0.007246986,0.001999145,0.003173828,-0.9985352,-0.1333008,0,0,0,0,0,0
4.910017,0,0,1,0.01960851,0,0,0,0,0,0,0,0,0,0,0,0,0,0,0.003459883,-0.002306589,0.001383953,0.003051758,-1.002319,-0.126709,0,0,0,0,0,0
4.920018,0,0,1,0.01960851,0,0,0,0,0,0,0,0,0,0,0,0,0,0,0.00299883,-0.002306792,0.001845434,0.002807617,-1.004395,-0.130249,0,0,0,0,0,0
4.930018,0,0,1,0.01960851,0,0,0,0,0,0,0,0,0,0,0,0,0,0,0.007689036,-0.004094404,0.005766777,0.001586914,-1.007202,-0.1257324,0,0,0,0,0,0
4.940018,0,0,1,0.01960851,0,0,0,0,0,0,0,0,0,0,0,0,0,0,0.007208167,-0.002883267,0.00499765,0.002807617,-1.006836,-0.1297607,0,0,0,0,0,0
4.950018,0,0,1,0.01960851,0,0,0,0,0,0,0,0,0,0,0,0,0,0,0.005516892,-0.004882473,0.0006728314,0.001708984,-1.007568,-0.1287842,0,0,0,0,0,0
4.960019,0,0,1,0.02745281,0,0,0,0,0,0,0,0,0,0,0,0,0,0,0.0007496566,-0.003248512,0.0004997711,0.002319336,-1.00647,-0.1260986,0,0,0,0,0,0
4.970019,0,0,1,0.01960851,0,0,0,0,0,0,0,0,0,0,0,0,0,0,0,-0.00161447,0.0004612771,0.0007324219,-1.004395,-0.1264648,0,0,0,0,0,0
4.980019,0,0,1,0.02745281,0,0,0,0,0,0,0,0,0,0,0,0,0,0,-0.001441694,-0.001172603,-0.0007496566,0.0006103516,-1.003052,-0.1252441,0,0,0,0,0,0
4.990019,0,0,1,0.01960851,0,0,0,0,0,0,0,0,0,0,0,0,0,0,-0.002383618,0.0007304503,0.0002306792,0.004638672,-1.000854,-0.1280518,0,0,0,0,0,0
5.00002,0,0,1,0.02745281,0,0,0,0,0,0,0,0,0,0,0,0,0,0,0.0002499059,0.0009996236,-0.0004998118,0.005004883,-0.9987793,-0.1229248,0,0,0,0,0,0
5.01002,0,0,1,0.02745281,0,0,0,0,0,0,0,0,0,0,0,0,0,0,0.0004998118,0.001999247,-0.002499059,0.005737305,-1.002197,-0.1256104,0,0,0,0,0,0
5.02002,0,0,1,0.02745281,0,0,0,0,0,0,0,0,0,0,0,0,0,0,-0.00169158,0.004574968,-0.005997457,0.007324219,-1.000244,-0.1236572,0,0,0,0,0,0
5.03002,0,0,1,0.01960851,0,0,0,0,0,0,0,0,0,0,0,0,0,0,-0.0002499059,0.006228095,-0.006478001,0.003540039,-1.003296,-0.1231689,0,0,0,0,0,0
5.04002,0,0,1,0.01960851,0,0,0,0,0,0,0,0,0,0,0,0,0,0,-0.0004805444,0.007438825,-0.004594012,0.004272461,-1.002808,-0.1236572,0,0,0,0,0,0
5.050021,0,0,1,0.01960851,0,0,0,0,0,0,0,0,0,0,0,0,0,0,0.0002306792,0.003460189,-0.001845434,0.004760742,-1.002808,-0.1252441,0,0,0,0,0,0
5.060021,0,0,1,0.01960851,0,0,0,0,0,0,0,0,0,0,0,0,0,0,0,0.003229225,-0.002767907,0.005371094,-1.006348,-0.1236572,0,0,0,0,0,0
5.070021,0,0,1,0.01960851,0,0,0,0,0,0,0,0,0,0,0,0,0,0,0.001249509,0.005497706,-0.005747592,0.007568359,-1.006104,-0.1254883,0,0,0,0,0,0
5.080021,0,0,1,0.01960851,0,0,0,0,0,0,0,0,0,0,0,0,0,0,0.0007496973,0.003248655,-0.006497289,0.005249023,-1.004517,-0.1251221,0,0,0,0,0,0
5.090022,0,0,1,0.01960851,0,0,0,0,0,0,0,0,0,0,0,0,0,0,0.0004997711,0.001999084,-0.007246681,0.004638672,-1.005005,-0.1276855,0,0,0,0,0,0
5.100022,0,0,1,0.01960851,0,0,0,0,0,0,0,0,0,0,0,0,0,0,-0.0004998118,0,-0.003998494,0.006103516,-0.9954834,-0.1287842,0,0,0,0,0,0
5.110022,0,0,1,0.01960851,0,0,0,0,0,0,0,0,0,0,0,0,0,0,0.0002499059,-0.001249529,-0.003748589,0.00769043,-0.9973145,-0.1293945,0,0,0,0,0,0
5.120022,0,0,1,0.01960851,0,0,0,0,0,0,0,0,0,0,0,0,0,0,0.003633045,-0.002402824,-0.009361411,0.009155273,-0.9979248,-0.130127,0,0,0,0,0,0
5.130023,0,0,1,0.01960851,0,0,0,0,0,0,0,0,0,0,0,0,0,0,0.001999084,-0.0009995422,-0.002998627,0.01159668,-0.9997559,-0.1268311,0,0,0,0,0,0
5.140023,0,0,1,0.01960851,0,0,0,0,0,0,0,0,0,0,0,0,0,0,0.005997518,-0.00174926,-0.003248634,0.007568359,-1.005493,-0.1223145,0,0,0,0,0,0
5.150023,0,0,1,0.01960851,0,0,0,0,0,0,0,0,0,0,0,0,0,0,0.005997518,-0.0002499059,-0.001499354,0.0111084,-1.00415,-0.123291,0,0,0,0,0,0
5.160023,0,0,1,0.01960851,0,0,0,0,0,0,0,0,0,0,0,0,0,0,0.002998627,-0.0004997711,0.0004997711,0.01159668,-1.008911,-0.1206055,0,0,0,0,0,0
5.170023,0,0,1,0.01960851,0,0,0,0,0,0,0,0,0,0,0,0,0,0,0.004574989,-0.001653106,0.001441694,0.005249023,-1.010376,-0.1237793,0,0,0,0,0,0
5.180024,0,0,1,0.01960851,0,0,0,0,0,0,0,0,0,0,0,0,0,0,0.001384075,-0.001153396,0.001614755,0.005493164,-1.011597,-0.1202393,0,0,0,0,0,0
5.190024,0,0,1,0.01960851,0,0,0,0,0,0,0,0,0,0,0,0,0,0,-0.0002499059,-0.002249153,0.002998871,0.00390625,-1.016968,-0.1173096,0,0,0,0,0,0
5.200024,0,0,1,0.01960851,0,0,0,0,0,0,0,0,0,0,0,0,0,0,-0.004997711,-0.005497482,0.009245765,0.005004883,-1.00769,-0.1199951,0,0,0,0,0,0
5.210024,0,0,1,0.01960851,0,0,0,0,0,0,0,0,0,0,0,0,0,0,-0.006747195,-0.006747195,0.009246131,0.0009765625,-1.00354,-0.1201172,0,0,0,0,0,0
5.220025,0,0,1,0.01960851,0,0,0,0,0,0,0,0,0,0,0,0,0,0,-0.002499059,-0.003498683,0.003998494,0.005493164,-0.9985352,-0.119751,0,0,0,0,0,0
5.230025,0,0,1,0.01960851,0,0,0,0,0,0,0,0,0,0,0,0,0,0,-0.003575427,-0.007458357,0.003633045,0.004516602,-0.9968262,-0.1247559,0,0,0,0,0,0
5.240025,0,0,1,0.01960851,0,0,0,0,0,0,0,0,0,0,0,0,0,0,-0.001211036,-0.006958566,0.003133295,0.006469727,-0.9931641,-0.1282959,0,0,0,0,0,0
5.250025,0,0,1,0.01960851,0,0,0,0,0,0,0,0,0,0,0,0,0,0,0.001249428,-0.003998169,0.001499313,0.004638672,-0.9916992,-0.1234131,0,0,0,0,0,0
5.260026,0,0,1,0.01960851,0,0,0,0,0,0,0,0,0,0,0,0,0,0,0.001249529,-0.003748589,0.001749341,0.006835938,-0.9985352,-0.1270752,0,0,0,0,0,0
5.270026,0,0,0.9815806,0.0195534,0,0,0,0,0,0,0,0,0,0,0,0,0,0,0.0002498855,-0.005747368,0.0009995422,0.003662109,-0.9937744,-0.1230469,0,0,0,0,0,0
5.280026,0,0,0.9169943,0.01934587,0,0,0,0,0,0,0,0,0,0,0,0,0,0,0.0004998118,-0.005997457,-0.002249112,0.005737305,-0.9936523,-0.1217041,0,0,0,0,0,0
5.290026,0,0,0.8524088,0.01911231,0,0,0,0,0,0,0,0,0,0,0,0,0,0,0.005247759,-0.002998769,-0.008246528,0.008300781,-0.9956055,-0.1225586,0,0,0,0,0,0
5.300026,0,0,0.7693719,0.01876517,0,0,0,0,0,0,0,0,0,0,0,0,0,0,0.004248055,-0.0007496566,-0.007496567,0.004516602,-1.001465,-0.1199951,0,0,0,0,0,0
5.310027,0,0,0.7048474,0.0258321,0,0,0,0,0,0,0,0,0,0,0,0,0,0,0.003248777,0,-0.007247271,0.007202148,-1.005371,-0.1212158,0,0,0,0,0,0
5.320027,0,0,0.6402763,0.02532166,0,0,0,0,0,0,0,0,0,0,0,0,0,0,0.003114048,0.001460941,-0.0127061,0.005981445,-1.005737,-0.1225586,0,0,0,0,0,0
5.330027,0,0,0.5664872,0.02462988,0,0,0,0,0,0,0,0,0,0,0,0,0,0,0.005286213,0.001191788,-0.009822708,0.006469727,-1.005859,-0.1223145,0,0,0,0,0,0
5.340027,0,0,0.5019299,0.02390142,0,0,0,0,0,0,0,0,0,0,0,0,0,0,0.0002498855,0.0002498855,-0.002998627,0.00793457,-1.008545,-0.1219482,0,0,0,0,0,0
5.350028,0,0,0.4097253,0.02258329,0,0,0,0,0,0,0,0,0,0,0,0,0,0,-0.0004998118,0.001499354,-0.006247424,0.004760742,-1.008545,-0.1239014,0,0,0,0,0,0
5.360028,0,0,0.33599,0.02118856,0,0,0,0,0,0,0,0,0,0,0,0,0,0,-0.002498957,0.0002499059,-0.009496016,0.004394531,-1.005005,-0.1221924,0,0,0,0,0,0
5.370028,0,0,0.2715073,0.01959331,0,0,0,0,0,0,0,0,0,0,0,0,0,0,-0.001153294,-0.0002306589,-0.004613177,0.009887695,-1.006592,-0.1268311,0,0,0,0,0,0
5.380028,0,0,0.1703138,0.01589596,0,0,0,0,0,0,0,0,0,0,0,0,0,0,-0.0002498855,-0.0009803359,-0.01153355,0.007568359,-1.013672,-0.1258545,0,0,0,0,0,0
5.390028,0,0,0.1152662,0.01280735,0,0,0,0,0,0,0,0,0,0,0,0,0,0,-0.00434433,-0.0016916,-0.008381013,0.008911133,-1.016235,-0.1259766,0,0,0,0,0,0
5.400029,0,0,0.0786901,0.0100151,0,0,0,0,0,0,0,0,0,0,0,0,0,0,-0.006958261,-0.001922178,-0.004344167,0.009887695,-1.009644,-0.1262207,0,0,0,0,0,0
5.410029,0,0,0.01520453,0.002595896,0,0,0,0,0,0,0,0,0,0,0,0,0,0,-0.007439151,-0.001672374,0.00242203,0.01599121,-1.011353,-0.1264648,0,0,0,0,0,0
5.420029,0,0,0,0,0,0,0,0,0,0,0,0,0,0,0,0,0,0,-0.005997253,-0.0002498855,0.001999084,0.00769043,-1.015869,-0.1269531,0,0,0,0,0,0
5.430029,0,0,0,0,0,0,0,0,0,0,0,0,0,0,0,0,0,0,-0.02325927,-0.0002499059,0.00236433,0.008300781,-1.019775,-0.1228027,0,0,0,0,0,0
5.44003,0,0,0,0,0,0,0,0,0,0,0,0,0,0,0,0,0,0,-0.0285648,0.0006920377,0.006689494,0.0111084,-1.011841,-0.1220703,0,0,0,0,0,0
5.45003,0,0,0,0,0,0,0,0,0,0,0,0,0,0,0,0,0,0,-0.02904536,0.0009611296,0.007708243,0.01171875,-1.020142,-0.1230469,0,0,0,0,0,0
5.46003,0,0,0,0,0,0,0,0,0,0,0,0,0,0,0,0,0,0,-0.01868337,0.001153294,0.002998566,0.008178711,-1.024658,-0.1280518,0,0,0,0,0,0
5.47003,0,0,0,0,0,0,0,0,0,0,0,0,0,0,0,0,0,0,-0.02514404,0.001614755,0.003460189,0.01293945,-1.013672,-0.1207275,0,0,0,0,0,0
5.480031,0,0,0,0,0,0,0,0,0,0,0,0,0,0,0,0,0,0,-0.04819113,0.00411361,0.009149937,0.0135498,-0.9886475,-0.130249,0,0,0,0,0,0
5.490031,0,0,0,0,0,0,0,0,0,0,0,0,0,0,0,0,0,0,-0.03598352,0.005497482,0.004997711,0.01098633,-0.9841309,-0.1365967,0,0,0,0,0,0
5.500031,0,0,0,0,0,0,0,0,0,0,0,0,0,0,0,0,0,0,-0.01299511,0.003498683,-0.002249153,0.005737305,-0.9815674,-0.1400146,0,0,0,0,0,0
5.510031,0,0,0,0,0,0,0,0,0,0,0,0,0,0,0,0,0,0,-0.01124577,0.004248401,-0.004498306,0.006713867,-0.9824219,-0.1409912,0,0,0,0,0,0
5.520031,0,0,0,0,0,0,0,0,0,0,0,0,0,0,0,0,0,0,-0.01635841,0.007689036,-0.008419488,0.004150391,-0.989502,-0.1395264,0,0,0,0,0,0
5.530032,0,0,0,0,0,0,0,0,0,0,0,0,0,0,0,0,0,0,-0.0113029,0.006977813,-0.006266589,0.008666992,-0.9891357,-0.1346436,0,0,0,0,0,0
5.540032,0,0,0,0,0,0,0,0,0,0,0,0,0,0,0,0,0,0,-0.00299883,0.001845434,-0.001153396,0.006225586,-0.9899902,-0.1334229,0,0,0,0,0,0
5.550032,0,0,0,0,0,0,0,0,0,0,0,0,0,0,0,0,0,0,-0.001749219,0.001999125,-0.00349854,0.009643555,-0.9929199,-0.1343994,0,0,0,0,0,0
5.560032,0,0,0,0,0,0,0,0,0,0,0,0,0,0,0,0,0,0,0.003998169,-0.0007496566,-0.00224897,0.008911133,-0.9992676,-0.125,0,0,0,0,0,0
5.570033,0,0,0,0,0,0,0,0,0,0,0,0,0,0,0,0,0,0,0.005997477,-0.003498499,-0.002249051,0.009521484,-1.001831,-0.1324463,0,0,0,0,0,0
5.580033,0,0,0,0,0,0,0,0,0,0,0,0,0,0,0,0,0,0,0.003498398,-0.003248512,-0.0009995422,0.007202148,-1.003296,-0.1298828,0,0,0,0,0,0
5.590033,0,0,0,0,0,0,0,0,0,0,0,0,0,0,0,0,0,0,0.0009995422,-0.003998169,0.0002498855,0.007324219,-1.001953,-0.1269531,0,0,0,0,0,0
5.600033,0,0,0,0,0,0,0,0,0,0,0,0,0,0,0,0,0,0,0.005766777,-0.008381013,0.004786401,0.006835938,-0.998291,-0.1271973,0,0,0,0,0,0
5.610034,0,0,0,0,0,0,0,0,0,0,0,0,0,0,0,0,0,0,0.008496433,-0.009496038,0.004498164,0.004882813,-0.9951172,-0.1289063,0,0,0,0,0,0
5.620034,0,0,0,0,0,0,0,0,0,0,0,0,0,0,0,0,0,0,0.009611296,-0.009592049,0.002864142,0.004394531,-0.9925537,-0.1304932,0,0,0,0,0,0
5.630034,0,0,0,0,0,0,0,0,0,0,0,0,0,0,0,0,0,0,0.005997253,-0.004248055,0.0007496566,0.006835938,-0.9870605,-0.1340332,0,0,0,0,0,0
5.640034,0,0,0,0,0,0,0,0,0,0,0,0,0,0,0,0,0,0,0.008995879,-0.004747826,0,0.007080078,-0.9858398,-0.1345215,0,0,0,0,0,0
5.650034,0,0,0,0,0,0,0,0,0,0,0,0,0,0,0,0,0,0,0.01149474,-0.004747826,-0.0002498855,0.007568359,-0.9960938,-0.1304932,0,0,0,0,0,0
5.660035,0,0,0,0,0,0,0,0,0,0,0,0,0,0,0,0,0,0,0.01049519,-0.003748283,-0.0002498855,0.01000977,-1.001099,-0.1307373,0,0,0,0,0,0
5.670035,0,0,0,0,0,0,0,0,0,0,0,0,0,0,0,0,0,0,0.01922259,-0.005785984,0.001441694,0.009643555,-1.005615,-0.1278076,0,0,0,0,0,0
5.680035,0,0,0,0,0,0,0,0,0,0,0,0,0,0,0,0,0,0,0.0178001,-0.004805648,0.002172145,0.01049805,-1.011475,-0.1273193,0,0,0,0,0,0
5.690035,0,0,0,0,0,0,0,0,0,0,0,0,0,0,0,0,0,0,0.01491676,-0.00265273,0.002902636,0.009887695,-1.015747,-0.1263428,0,0,0,0,0,0
5.700036,0,0,0,0,0,0,0,0,0,0,0,0,0,0,0,0,0,0,0.002537248,-0.001383953,0.0009226355,0.009887695,-1.006836,-0.1315918,0,0,0,0,0,0
5.710036,0,0,0,0,0,0,0,0,0,0,0,0,0,0,0,0,0,0,0.009169145,-0.002671916,-0.003633045,0.004516602,-1.002319,-0.1317139,0,0,0,0,0,0
5.720036,0,0,0,0,0,0,0,0,0,0,0,0,0,0,0,0,0,0,0.01343602,-0.00359447,-0.00286404,0.005493164,-1.007568,-0.1257324,0,0,0,0,0,0
5.730036,0,0,0,0,0,0,0,0,0,0,0,0,0,0,0,0,0,0,0.00549793,-0.001749341,0,0.002685547,-1.008789,-0.1248779,0,0,0,0,0,0
5.740036,0,0,0,0,0,0,0,0,0,0,0,0,0,0,0,0,0,0,0.005113153,-0.002152938,0.002402824,0.0009765625,-1.010254,-0.1220703,0,0,0,0,0,0
5.750037,0,0,0,0,0,0,0,0,0,0,0,0,0,0,0,0,0,0,0.0009803359,-0.002172145,0.001922259,0.005493164,-1.00647,-0.1243896,0,0,0,0,0,0
5.760037,0,0,0,0,0,0,0,0,0,0,0,0,0,0,0,0,0,0,-0.0002499059,-0.002422071,-0.0002499059,0.002563477,-1.000488,-0.1239014,0,0,0,0,0,0
5.770037,0,0,0,0,0,0,0,0,0,0,0,0,0,0,0,0,0,0,0,-0.001153396,-0.001384075,0.008300781,-1.000977,-0.1253662,0,0,0,0,0,0
5.780037,0,0,0,0,0,0,0,0,0,0,0,0,0,0,0,0,0,0,-0.0004613585,-0.002076113,-0.002306792,0.01037598,-0.9995117,-0.1259766,0,0,0,0,0,0
5.790038,0,0,0,0,0,0,0,0,0,0,0,0,0,0,0,0,0,0,0.001499395,-0.003998311,-0.002998749,0.0135498,-0.9990234,-0.126709,0,0,0,0,0,0
5.800038,0,0,0,0,0,0,0,0,0,0,0,0,0,0,0,0,0,0,0.006248115,-0.00399882,-0.0007499008,0.009887695,-0.998291,-0.1257324,0,0,0,0,0,0
5.810038,0,0,0,0,0,0,0,0,0,0,0,0,0,0,0,0,0,0,0.003748283,-0.0009995422,0.001499313,0.01049805,-0.9970703,-0.1273193,0,0,0,0,0,0
5.820038,0,0,0,0,0,0,0,0,0,0,0,0,0,0,0,0,0,0,0.004747826,-0.001749199,0.001749199,0.0078125,-0.9940186,-0.1279297,0,0,0,0,0,0
5.830039,0,0,0,0,0,0,0,0,0,0,0,0,0,0,0,0,0,0,0.01034177,-0.002172165,0.001460941,0.00793457,-0.9932861,-0.1234131,0,0,0,0,0,0
5.840039,0,0,0,0,0,0,0,0,0,0,0,0,0,0,0,0,0,0,0.009841975,-0.002864182,0,0.006958008,-0.9897461,-0.1258545,0,0,0,0,0,0
5.850039,0,0,0,0,0,0,0,0,0,0,0,0,0,0,0,0,0,0,0.01649308,-0.004248217,0.0004997915,0.009521484,-0.9954834,-0.1265869,0,0,0,0,0,0
5.860039,0,0,0,0,0,0,0,0,0,0,0,0,0,0,0,0,0,0,0.01774259,-0.005497726,0.0009995829,0.007568359,-1.004517,-0.1237793,0,0,0,0,0,0
5.870039,0,0,0,0,0,0,0,0,0,0,0,0,0,0,0,0,0,0,0.008496109,-0.002748741,0.0004997711,0.005371094,-1.006592,-0.121582,0,0,0,0,0,0
5.88004,0,0,0,0,0,0,0,0,0,0,0,0,0,0,0,0,0,0,0.01291763,-0.004805648,0.00209532,0.005859375,-1.009399,-0.1206055,0,0,0,0,0,0
5.89004,0,0,0,0,0,0,0,0,0,0,0,0,0,0,0,0,0,0,0.01393638,-0.004325083,0.005997457,0.004882813,-1.009155,-0.1225586,0,0,0,0,0,0
5.90004,0,0,0,0,0,0,0,0,0,0,0,0,0,0,0,0,0,0,0.005305154,-0.002998566,0.003459883,0.005615234,-1.006592,-0.1275635,0,0,0,0,0,0
5.91004,0,0,0,0,0,0,0,0,0,0,0,0,0,0,0,0,0,0,0.006497024,-0.002998627,0.002998627,0.007324219,-1.007813,-0.1279297,0,0,0,0,0,0
5.920041,0,0,0,0,0,0,0,0,0,0,0,0,0,0,0,0,0,0,0.005998719,-0.003249306,0.002499466,0.006713867,-1.005371,-0.1282959,0,0,0,0,0,0
5.930041,0,0,0,0,0,0,0,0,0,0,0,0,0,0,0,0,0,0,0.01274518,-0.005997742,0.002249173,0.005004883,-1.007446,-0.1265869,0,0,0,0,0,0
5.940041,0,0,0,0,0,0,0,0,0,0,0,0,0,0,0,0,0,0,0.006497554,-0.003248777,0,0.006469727,-1.006348,-0.1242676,0,0,0,0,0,0
5.950041,0,0,0,0,0,0,0,0,0,0,0,0,0,0,0,0,0,0,0.005247597,-0.002498855,0.0007496566,0.006469727,-1.009277,-0.12146,0,0,0,0,0,0
5.960042,0,0,0,0,0,0,0,0,0,0,0,0,0,0,0,0,0,0,0.00699706,-0.004748029,0.002249072,0.006958008,-1.009155,-0.1213379,0,0,0,0,0,0
5.970042,-0.0230957,0.002685547,0,0,0,0,0,0,0,0,0,0,0,0,0,0,0,0,0.01474361,-0.005997436,0.01124516,0.0078125,-1.004272,-0.1170654,0,0,0,0,0,0
5.980042,-0.03222121,0.003580134,0,0,0,0,0,0,0,0,0,0,0,0,0,0,0,0,0.006247343,-0.003363954,0.007169978,0.005737305,-1.000366,-0.1186523,0,0,0,0,0,0
5.990042,-0.04229435,0.006299159,0,0,0,0,0,0,0,0,0,0,0,0,0,0,0,0,0.004075177,-0.003844518,0.004363577,0.008666992,-0.9967041,-0.1159668,0,0,0,0,0,0
6.000042,-0.05136992,0.00733856,0,0,0,0,0,0,0,0,0,0,0,0,0,0,0,0,0.007650543,-0.00434433,0.002671977,0.005126953,-0.9985352,-0.1193848,0,0,0,0,0,0
6.010043,-0.06150878,0.01085449,0,0,0,0,0,0,0,0,0,0,0,0,0,0,0,0,0.01053401,-0.005766777,0.0002306792,0.002441406,-1.00354,-0.1124268,0,0,0,0,0,0
6.020043,-0.07054136,0.01197872,0,0,0,0,0,0,0,0,0,0,0,0,0,0,0,0,0.00449794,-0.002998627,0.0004997711,0.003051758,-1.004883,-0.1120605,0,0,0,0,0,0
6.030043,-0.07054136,0.01197872,0,0,0,0,0,0,0,0,0,0,0,0,0,0,0,0,0.005574613,-0.004094424,0.003806024,0.005126953,-1.006958,-0.1105957,0,0,0,0,0,0
6.040043,-0.07959422,0.01302451,0,0,0,0,0,0,0,0,0,0,0,0,0,0,0,0,0.002652709,-0.003844518,0.005036327,0.0006103516,-1.010864,-0.1136475,0,0,0,0,0,0
6.050044,-0.08070491,0.01614098,0,0,0,0,0,0,0,0,0,0,0,0,0,0,0,0,-0.0002306589,-0.001614612,0.002537248,0.001831055,-1.006958,-0.1136475,0,0,0,0,0,0
6.060044,-0.08070491,0.01614098,0,0,0,0,0,0,0,0,0,0,0,0,0,0,0,0,-0.002883267,-0.00359447,0.004094241,0.004638672,-1.007202,-0.1169434,0,0,0,0,0,0
6.070044,-0.08970223,0.01731096,0,0,0,0,0,0,0,0,0,0,0,0,0,0,0,0,-0.002402824,-0.002883389,0.004325083,0.003051758,-1.001465,-0.1176758,0,0,0,0,0,0
6.080044,-0.09092321,0.02073687,0,0,0,0,0,0,0,0,0,0,0,0,0,0,0,0,-0.002748843,-0.003748446,0.003998332,0.005249023,-1.005737,-0.1164551,0,0,0,0,0,0
6.090044,-0.09986624,0.02200443,0,0,0,0,0,0,0,0,0,0,0,0,0,0,0,0,-0.002633503,-0.004805648,0.004094404,0.009033203,-1.002563,-0.1190186,0,0,0,0,0,0
6.100045,-0.09986624,0.02200443,0,0,0,0,0,0,0,0,0,0,0,0,0,0,0,0,-0.0004612771,-0.002075747,0.002075747,0.005371094,-1.002319,-0.1201172,0,0,0,0,0,0
6.110045,-0.1011733,0.02572201,0,0,0,0,0,0,0,0,0,0,0,0,0,0,0,0,-0.0002306792,-0.006977793,0.003363954,0.005126953,-1.003052,-0.1242676,0,0,0,0,0,0
6.120045,-0.1100646,0.02706507,0,0,0,0,0,0,0,0,0,0,0,0,0,0,0,0,0.0004997711,-0.003748283,0.001999084,0.004394531,-1.003906,-0.1192627,0,0,0,0,0,0
6.130045,-0.1114376,0.03105639,0,0,0,0,0,0,0,0,0,0,0,0,0,0,0,0,0,-0.007746777,0.002998728,0.008544922,-1.004395,-0.116333,0,0,0,0,0,0
6.140046,-0.1114376,0.03105639,0,0,0,0,0,0,0,0,0,0,0,0,0,0,0,0,0.001249428,-0.002748741,0,0.008666992,-1.003906,-0.1176758,0,0,0,0,0,0
6.150046,-0.1202808,0.03245672,0,0,0,0,0,0,0,0,0,0,0,0,0,0,0,0,0.0007112441,-0.005036327,-0.0002306792,0.007324219,-1.013794,-0.1140137,0,0,0,0,0,0
6.160046,-0.1217032,0.03670416,0,0,0,0,0,0,0,0,0,0,0,0,0,0,0,0,-0.0007305318,-0.001672496,0.001230384,0.005981445,-1.011719,-0.1156006,0,0,0,0,0,0
6.170046,-0.1319605,0.04263338,0,0,0,0,0,0,0,0,0,0,0,0,0,0,0,0,-0.003382916,-0.00117244,0.004343964,0.002929688,-1.010254,-0.116333,0,0,0,0,0,0
6.180047,-0.1509244,0.05030814,0,0,0,0,0,0,0,0,0,0,0,0,0,0,0,0,-0.001999084,-0.0007496566,0.00224897,0.002197266,-1.009277,-0.1159668,0,0,0,0,0,0
6.190047,-0.1712811,0.06335056,0,0,0,0,0,0,0,0,0,0,0,0,0,0,0,0,-0.005997498,-0.002498957,0.003998332,0.004760742,-1.008179,-0.1138916,0,0,0,0,0,0
6.200047,-0.1915462,0.077116,0,0,0,0,0,0,0,0,0,0,0,0,0,0,0,0,-0.007919716,-0.003825312,0.003594633,0.003417969,-1.006836,-0.1149902,0,0,0,0,0,0
6.210047,-0.2303513,0.1002706,0,0,0,0,0,0,0,0,0,0,0,0,0,0,0,0,-0.00484341,-0.002767663,0.002767663,0.001586914,-1.005493,-0.1185303,0,0,0,0,0,0
6.220047,-0.2702141,0.1307488,0,0,0,0,0,0,0,0,0,0,0,0,0,0,0,0,-0.0122448,-0.006958586,0.006977793,0.002685547,-0.9959717,-0.1193848,0,0,0,0,0,0
6.230048,-0.2900062,0.146498,-0.01372116,-0.007046003,0,0,0,0,0,0,0,0,0,0,0,0,0,0,-0.01007265,-0.006478022,0.005516892,0.0008544922,-0.9946289,-0.1171875,0,0,0,0,0,0
6.240048,-0.2998696,0.1544783,-0.02455354,-0.01322114,0,0,0,0,0,0,0,0,0,0,0,0,0,0,-0.005497482,-0.002748741,0.001499313,0.003417969,-0.9903564,-0.1199951,0,0,0,0,0,0
6.250048,-0.3084477,0.1557508,-0.05334941,-0.02963856,0,0,0,0,0,0,0,0,0,0,0,0,0,0,-0.005997253,-0.003498398,-0.001249428,0.005493164,-0.9927979,-0.1162109,0,0,0,0,0,0
6.260048,-0.3170559,0.1569888,-0.07150721,-0.03940193,0,0,0,0,0,0,0,0,0,0,0,0,0,0,-0.001230221,-0.0009803359,-0.002133732,0.005004883,-0.9943848,-0.1169434,0,0,0,0,0,0
6.270049,-0.3170559,0.1569888,-0.08971035,-0.0490868,0,0,0,0,0,0,0,0,0,0,0,0,0,0,0.002441115,0,-0.004343964,0.003295898,-0.996582,-0.1195068,0,0,0,0,0,0
6.280049,-0.3170559,0.1569888,-0.1079492,-0.05870921,0,0,0,0,0,0,0,0,0,0,0,0,0,0,0.004805444,0,-0.006285531,0.0007324219,-1.003662,-0.1181641,0,0,0,0,0,0
6.290049,-0.3256923,0.1581934,-0.1159836,-0.06094052,0,0,0,0,0,0,0,0,0,0,0,0,0,0,0.003248512,-0.0002498855,-0.002998627,0.0008544922,-1.004883,-0.1168213,0,0,0,0,0,0
6.300049,-0.3256923,0.1581934,-0.1159836,-0.06094052,0,0,0,0,0,0,0,0,0,0,0,0,0,0,0.003998169,-0.0007496566,-0.003498398,0.00402832,-1.004639,-0.1203613,0,0,0,0,0,0
6.31005,-0.3343555,0.1593657,-0.1241093,-0.06307194,0,0,0,0,0,0,0,0,0,0,0,0,0,0,0.002748822,-0.004748029,-0.006747195,0.006347656,-1.005127,-0.1173096,0,0,0,0,0,0
6.32005,-0.3343555,0.1593657,-0.1241093,-0.06307194,0,0,0,0,0,0,0,0,0,0,0,0,0,0,0.001672353,-0.006458754,-0.005747531,0.004882813,-1.003052,-0.1235352,0,0,0,0,0,0
6.33005,-0.3430438,0.1605068,-0.1241093,-0.06307194,0,0,0,0,0,0,0,0,0,0,0,0,0,0,0.0006920377,-0.00299883,-0.0002306792,0.002685547,-1.003052,-0.119751,0,0,0,0,0,0
6.34005,-0.351756,0.1616176,-0.1323179,-0.0651088,0,0,0,0,0,0,0,0,0,0,0,0,0,0,0.001210974,-0.006496963,0.002441176,0.002685547,-1.004639,-0.1199951,0,0,0,0,0,0
6.35005,-0.351756,0.1616176,-0.1323179,-0.0651088,0,0,0,0,0,0,0,0,0,0,0,0,0,0,0.003613697,-0.005516648,0.005036103,0,-1.006714,-0.1191406,0,0,0,0,0,0
6.360051,-0.3604906,0.1626993,-0.1323179,-0.0651088,0,0,0,0,0,0,0,0,0,0,0,0,0,0,0.001749199,-0.002748741,0.002498855,0.002319336,-1.005859,-0.1187744,0,0,0,0,0,0
6.370051,-0.3702963,0.1706583,-0.1323179,-0.0651088,0,0,0,0,0,0,0,0,0,0,0,0,0,0,0.004997935,-0.004748029,0.001999145,0.002929688,-1.014038,-0.1202393,0,0,0,0,0,0
6.380051,-0.3702963,0.1706583,-0.1343342,-0.07036556,0,0,0,0,0,0,0,0,0,0,0,0,0,0,0.003402447,-0.005536119,-0.001903012,0.0004882813,-1.011719,-0.1179199,0,0,0,0,0,0
6.390051,-0.3702963,0.1706583,-0.1425317,-0.07236225,0,0,0,0,0,0,0,0,0,0,0,0,0,0,-0.001153294,-0.002998566,-0.002998566,0.003662109,-1.012695,-0.1188965,0,0,0,0,0,0
6.400052,-0.3790455,0.1717044,-0.1425317,-0.07236225,0,0,0,0,0,0,0,0,0,0,0,0,0,0,-0.001845434,-0.002537472,-0.002768151,0.002685547,-1.013794,-0.1201172,0,0,0,0,0,0
6.410052,-0.3800876,0.1786736,-0.1591389,-0.07610993,0,0,0,0,0,0,0,0,0,0,0,0,0,0,-0.005305419,-0.004305877,-0.003133274,0.005126953,-1.01062,-0.1204834,0,0,0,0,0,0
6.420052,-0.3800876,0.1786736,-0.1675367,-0.07786916,0,0,0,0,0,0,0,0,0,0,0,0,0,0,-0.006977508,-0.002633381,-0.001672292,0.006347656,-1.010132,-0.1221924,0,0,0,0,0,0
6.430052,-0.3800876,0.1786736,-0.1759901,-0.07955717,0,0,0,0,0,0,0,0,0,0,0,0,0,0,-0.009495651,-0.001749199,-0.0009995422,0.004516602,-1.003418,-0.1213379,0,0,0,0,0,0
6.440053,-0.3800876,0.1786736,-0.1945951,-0.08845231,0,0,0,0,0,0,0,0,0,0,0,0,0,0,-0.007477564,-0.0009803359,-0.002633503,0.005004883,-1.000854,-0.119751,0,0,0,0,0,0
6.450053,-0.3888309,0.1797118,-0.2031302,-0.08999442,0,0,0,0,0,0,0,0,0,0,0,0,0,0,-0.004824854,-0.0007112441,-0.002383618,0.005615234,-0.9996338,-0.1195068,0,0,0,0,0,0
6.460053,-0.3888309,0.1797118,-0.221749,-0.09885195,0,0,0,0,0,0,0,0,0,0,0,0,0,0,-0.004555742,0,-0.0002499059,0.003662109,-1.003052,-0.1169434,0,0,0,0,0,0
6.470053,-0.3888309,0.1797118,-0.2303513,-0.1002706,0,0,0,0,0,0,0,0,0,0,0,0,0,0,-0.004075198,-0.0004805648,0.0007304503,0.0006103516,-1.001099,-0.1202393,0,0,0,0,0,0
6.480053,-0.3888309,0.1797118,-0.2303513,-0.1002706,0,0,0,0,0,0,0,0,0,0,0,0,0,0,-0.0004613585,-0.001922259,0.0004805648,0.0006103516,-0.9990234,-0.1182861,0,0,0,0,0,0
6.490054,-0.3888309,0.1797118,-0.2303513,-0.1002706,0,0,0,0,0,0,0,0,0,0,0,0,0,0,0.002249153,-0.001749341,-0.001749341,-0.001953125,-1.001343,-0.114502,0,0,0,0,0,0
6.500054,-0.3888309,0.1797118,-0.2389896,-0.1016392,0,0,0,0,0,0,0,0,0,0,0,0,0,0,0.007419599,-0.002902493,-0.008630574,-0.002807617,-0.9968262,-0.1134033,0,0,0,0,0,0
6.510054,-0.3888309,0.1797118,-0.226368,-0.08255773,0,0,0,0,0,0,0,0,0,0,0,0,0,0,0.005766981,-0.0004613585,-0.00599766,-0.005493164,-1,-0.1071777,0,0,0,0,0,0
6.520054,-0.3888309,0.1797118,-0.09696148,-0.0115039,0,0,0,0,0,0,0,0,0,0,0,0,0,0,0.0280072,0,-0.01639682,-0.008056641,-0.9899902,-0.1182861,0,0,0,0,0,0
6.530055,-0.3888309,0.1797118,-0.02191465,0,0,0,0,0,0,0,0,0,0,0,0,0,0,0,0.01724351,0,-0.01499435,0.01525879,-0.9968262,-0.1109619,0,0,0,0,0,0
6.540055,-0.3888309,0.1797118,-0.003460207,0,0,0,0,0,0,0,0,0,0,0,0,0,0,0,-0.00674691,0.0007496566,-0.02973638,0.01574707,-1.017578,-0.1154785,0,0,0,0,0,0
6.550055,-0.3800876,0.1786736,0,0,0,0,0,0,0,0,0,0,0,0,0,0,0,0,-0.006612466,0.003363954,-0.02212519,0.006347656,-1.00061,-0.1160889,0,0,0,0,0,0
6.560055,-0.3539868,0.1753988,0,0,0,0,0,0,0,0,0,0,0,0,0,0,0,0,0.005997131,0.001845271,-0.004382519,0.01013184,-1.007935,-0.112793,0,0,0,0,0,0
6.570055,-0.2801213,0.1385863,0,0,0,0,0,0,0,0,0,0,0,0,0,0,0,0,0.006650553,0.004536271,0.005593697,0.01489258,-1.020386,-0.1165771,0,0,0,0,0,0
6.580056,-0.2247102,0.1110014,0,0,0,0,0,0,0,0,0,0,0,0,0,0,0,0,-0.0007496566,0.001191809,0.01372491,0.01159668,-1.009766,-0.116333,0,0,0,0,0,0
6.590056,-0.1793871,0.09092221,0,0,0,0,0,0,0,0,0,0,0,0,0,0,0,0,-0.0009995422,-0.0009995422,0.007496567,0.01062012,-1.006592,-0.1164551,0,0,0,0,0,0
6.600056,-0.1323179,0.0651088,0,0,0,0,0,0,0,0,0,0,0,0,0,0,0,0,-0.001499435,-0.001999247,0.007497177,0.009033203,-1.003784,-0.1165771,0,0,0,0,0,0
6.610056,-0.07683752,0.03766545,0,0,0,0,0,0,0,0,0,0,0,0,0,0,0,0,-0.003844518,-0.003825271,0.01276384,0.0078125,-1.001221,-0.1137695,0,0,0,0,0,0
6.620057,-0.03525043,0.01977463,0,0,0,0,0,0,0,0,0,0,0,0,0,0,0,0,-0.002537472,-0.001384075,0.004152226,0.00402832,-0.9985352,-0.1188965,0,0,0,0,0,0
6.630057,0,0,0,0,0,0,0,0,0,0,0,0,0,0,0,0,0,0,-0.003363811,-0.002633381,0.006208625,0.008666992,-0.9989014,-0.1179199,0,0,0,0,0,0
6.640057,0,0,0,0,0,0,0,0,0,0,0,0,0,0,0,0,0,0,-0.003114048,-0.001422447,0.00405593,0.005493164,-0.9978027,-0.1191406,0,0,0,0,0,0
6.650057,0,0,0,0,0,0,0,0,0,0,0,0,0,0,0,0,0,0,-0.0002498855,-0.0004997711,0.0002498855,0.007446289,-0.9981689,-0.1143799,0,0,0,0,0,0
6.660058,0,0,0,0,0,0,0,0,0,0,0,0,0,0,0,0,0,0,-0.0002498855,-0.0002498855,-0.0007496566,0.008666992,-1.003784,-0.1109619,0,0,0,0,0,0
6.670058,0,0,0,0,0,0,0,0,0,0,0,0,0,0,0,0,0,0,-0.001191788,-0.0002499059,-0.002883389,0.01257324,-1.008423,-0.1165771,0,0,0,0,0,0
6.680058,0,0,0,0,0,0,0,0,0,0,0,0,0,0,0,0,0,0,-0.0002498855,0,-0.00286404,0.01000977,-1.005371,-0.1131592,0,0,0,0,0,0
6.690058,0,0,0,0,0,0,0,0,0,0,0,0,0,0,0,0,0,0,-0.0004613585,0.001460901,-0.00338316,0.008666992,-1.015015,-0.1169434,0,0,0,0,0,0
6.700058,0,0,0,0,0,0,0,0,0,0,0,0,0,0,0,0,0,0,-0.00265273,0.001710847,0.0007112237,0.005859375,-1.014526,-0.1151123,0,0,0,0,0,0
6.710059,0,0,0,0,0,0,0,0,0,0,0,0,0,0,0,0,0,0,-0.002998566,0,0.001383953,0.007324219,-1.012817,-0.1136475,0,0,0,0,0,0
6.720059,0,0,0,0,0,0,0,0,0,0,0,0,0,0,0,0,0,0,-0.005074943,-0.001153396,0.002537472,0.005859375,-1.011353,-0.1137695,0,0,0,0,0,0
6.730059,0,0,0,0,0,0,0,0,0,0,0,0,0,0,0,0,0,0,-0.01024531,-0.006247139,0.00224897,0.006225586,-1.00293,-0.1170654,0,0,0,0,0,0
6.740059,0,0,0,0,0,0,0,0,0,0,0,0,0,0,0,0,0,0,-0.011995,-0.008246589,0.001999186,0.004150391,-1.005493,-0.1126709,0,0,0,0,0,0
6.75006,0,0,0,0,0,0,0,0,0,0,0,0,0,0,0,0,0,0,-0.007247271,-0.004998118,0.0004998118,0.001708984,-0.9975586,-0.1162109,0,0,0,0,0,0
6.76006,0,0,0,0,0,0,0,0,0,0,0,0,0,0,0,0,0,0,-0.006247139,-0.004747826,0,0.002319336,-0.9935303,-0.1157227,0,0,0,0,0,0
6.77006,0,0,0,0,0,0,0,0,0,0,0,0,0,0,0,0,0,0,-0.004498306,-0.004248401,-0.0007497177,0.005371094,-0.9926758,-0.1191406,0,0,0,0,0,0
6.78006,0,0,0,0,0,0,0,0,0,0,0,0,0,0,0,0,0,0,-0.007996663,-0.007246966,-0.003748405,0.00793457,-0.9945068,-0.1203613,0,0,0,0,0,0
6.790061,0,0,0,0,0,0,0,0,0,0,0,0,0,0,0,0,0,0,-0.005978189,-0.005266965,-0.003844518,0.01135254,-0.9981689,-0.1181641,0,0,0,0,0,0
6.800061,0,0,0,0,0,0,0,0,0,0,0,0,0,0,0,0,0,0,-0.003325744,-0.004075523,-0.002864386,0.01025391,-0.9942627,-0.1171875,0,0,0,0,0,0
6.810061,0,0,0,0,0,0,0,0,0,0,0,0,0,0,0,0,0,0,0.0009995422,-0.001749199,-0.0007496566,0.007568359,-0.9981689,-0.1179199,0,0,0,0,0,0
6.820061,0,0,0,0,0,0,0,0,0,0,0,0,0,0,0,0,0,0,0.004248055,-0.0007496566,0.0002498855,0.002319336,-1.008301,-0.1166992,0,0,0,0,0,0
6.830061,0,0,0,0,0,0,0,0,0,0,0,0,0,0,0,0,0,0,0.003748283,-0.001249428,0.004747825,0.007568359,-1.008301,-0.1195068,0,0,0,0,0,0
6.840062,0,0,0,0,0,0,0,0,0,0,0,0,0,0,0,0,0,0,0.005497686,-0.001499374,0.004997955,0.002929688,-1.006592,-0.1153564,0,0,0,0,0,0
6.850062,0,0,0,0,0,0,0,0,0,0,0,0,0,0,0,0,0,0,0,-0.001845434,0.001845434,0.006713867,-1.006592,-0.1184082,0,0,0,0,0,0
6.860062,0,0,0,0,0,0,0,0,0,0,0,0,0,0,0,0,0,0,-0.009899227,-0.004805444,0.004574785,0.005981445,-1.010376,-0.1199951,0,0,0,0,0,0
6.870062,0,0,0,0,0,0,0,0,0,0,0,0,0,0,0,0,0,0,-0.01176423,-0.004574968,0.00501712,0.002929688,-1.003174,-0.1203613,0,0,0,0,0,0
6.880063,0,0,0,0,0,0,0,0,0,0,0,0,0,0,0,0,0,0,-0.003748283,-0.00224897,0.00224897,0.004272461,-0.9992676,-0.1207275,0,0,0,0,0,0
6.890063,0,0,0,0,0,0,0,0,0,0,0,0,0,0,0,0,0,0,-0.002249051,-0.004498123,0.00524782,0.002197266,-1.000488,-0.1171875,0,0,0,0,0,0
6.900063,0,0,0,0,0,0,0,0,0,0,0,0,0,0,0,0,0,0,-0.001999084,-0.003248512,0.003248512,0.0006103516,-1.004395,-0.1208496,0,0,0,0,0,0
6.910063,0,0,0,0,0,0,0,0,0,0,0,0,0,0,0,0,0,0,-0.001672374,-0.002883389,0.002883389,0.002685547,-1.003296,-0.1210938,0,0,0,0,0,0
6.920063,0,0,0,0,0,0,0,0,0,0,0,0,0,0,0,0,0,0,-0.0007112441,-0.003344747,0.002614297,0.00402832,-1.003906,-0.1225586,0,0,0,0,0,0
6.930064,0,0,0,0,0,0,0,0,0,0,0,0,0,0,0,0,0,0,-0.0006919156,-0.001383831,0,0.004882813,-0.9991455,-0.1199951,0,0,0,0,0,0
6.940064,0,0,0,0,0,0,0,0,0,0,0,0,0,0,0,0,0,0,0,-0.001384075,-0.000922717,0.002807617,-1.001465,-0.1168213,0,0,0,0,0,0
6.950064,0,0,0,0,0,0,0,0,0,0,0,0,0,0,0,0,0,0,0.001941465,-0.002883389,-0.003613839,0.007568359,-1.007568,-0.1186523,0,0,0,0,0,0
6.960064,0,0,0,0,0,0,0,0,0,0,0,0,0,0,0,0,0,0,-0.0004997711,-0.001922178,-0.002883267,0.007568359,-1.010742,-0.1175537,0,0,0,0,0,0
6.970065,0,0,0,0,0,0,0,0,0,0,0,0,0,0,0,0,0,0,-0.002998749,-0.0002498855,-0.001249428,0.008666992,-1.014648,-0.116333,0,0,0,0,0,0
6.980065,0,0,0,0,0,0,0,0,0,0,0,0,0,0,0,0,0,0,-0.003498398,0.0002498855,0.00224897,0.009033203,-1.014404,-0.1202393,0,0,0,0,0,0
6.990065,0,0,0,0,0,0,0,0,0,0,0,0,0,0,0,0,0,0,-0.008669373,0,0.006035869,0.005249023,-1.006226,-0.1195068,0,0,0,0,0,0
7.000065,0,0,0,0,0,0,0,0,0,0,0,0,0,0,0,0,0,0,-0.006977813,-0.001422447,0.01009186,0.008300781,-0.9952393,-0.121582,0,0,0,0,0,0
7.010066,0,0,0,0,0,0,0,0,0,0,0,0,0,0,0,0,0,0,-0.001979878,-0.004632588,0.01287901,0.006347656,-0.9924316,-0.1234131,0,0,0,0,0,0
7.020066,0,0,0,0,0,0,0,0,0,0,0,0,0,0,0,0,0,0,-0.0002499059,-0.005747592,0.002998749,0.005737305,-0.9968262,-0.1199951,0,0,0,0,0,0
7.030066,0,0,0,0,0,0,0,0,0,0,0,0,0,0,0,0,0,0,-0.0002499059,-0.005997436,0.002191412,0.007324219,-0.9985352,-0.1151123,0,0,0,0,0,0
7.040066,0,0,0,0,0,0,0,0,0,0,0,0,0,0,0,0,0,0,0,-0.003248777,0.001499435,0.007202148,-1.003052,-0.1186523,0,0,0,0,0,0
7.050066,0,0,0,0,0,0,0,0,0,0,0,0,0,0,0,0,0,0,0,-0.003748283,0.001749199,0.005737305,-0.9996338,-0.1149902,0,0,0,0,0,0
7.060067,0,0,0,0,0,0,0,0,0,0,0,0,0,0,0,0,0,0,-2.034358E-08,-0.006747195,0.002998769,0.006347656,-1.001831,-0.1166992,0,0,0,0,0,0
7.070067,0,0,0,0,0,0,0,0,0,0,0,0,0,0,0,0,0,0,-0.0002498855,-0.007246966,0.003748426,0.00402832,-1.000854,-0.1151123,0,0,0,0,0,0
7.080067,0,0,0,0,0,0,0,0,0,0,0,0,0,0,0,0,0,0,-0.002402925,-0.006939645,0.002364472,0.005737305,-1.002686,-0.1169434,0,0,0,0,0,0
7.090067,0,0,0,0,0,0,0,0,0,0,0,0,0,0,0,0,0,0,-0.003363384,-0.007187963,0.002152531,0.007324219,-1.004639,-0.1162109,0,0,0,0,0,0
7.100068,0,0,0,0,0,0,0,0,0,0,0,0,0,0,0,0,0,0,-0.001383953,-0.003229225,0.001845271,0.008422852,-1.004883,-0.1176758,0,0,0,0,0,0
7.110068,0,0,0,0,0,0,0,0,0,0,0,0,0,0,0,0,0,0,-0.003921547,-0.00322951,0.002076113,0.001831055,-1.019409,-0.1134033,0,0,0,0,0,0
7.120068,0,0,0,0,0,0,0,0,0,0,0,0,0,0,0,0,0,0,-0.008765811,-0.003460189,0.001845434,0.005493164,-1.017456,-0.1181641,0,0,0,0,0,0
7.130068,0,0,0,0,0,0,0,0,0,0,0,0,0,0,0,0,0,0,-0.02018287,-0.0086498,0.01037977,0.005493164,-1.008545,-0.1181641,0,0,0,0,0,0
7.140069,0,0,0,0,0,0,0,0,0,0,0,0,0,0,0,0,0,0,-0.01849229,-0.009496057,0.01424407,0.006958008,-1.000854,-0.123291,0,0,0,0,0,0
7.150069,0,0,0,0,0,0,0,0,0,0,0,0,0,0,0,0,0,0,-0.006997366,-0.005747836,0.006497554,0.0008544922,-0.9942627,-0.1218262,0,0,0,0,0,0
7.160069,0,0,0,0,0,0,0,0,0,0,0,0,0,0,0,0,0,0,-0.005247597,-0.006996796,0.003748283,0.001464844,-0.9936523,-0.1217041,0,0,0,0,0,0
7.170069,0,0,0,0,0,0,0,0,0,0,0,0,0,0,0,0,0,0,-0.01322515,-0.01301374,-0.002345083,0.009033203,-0.9946289,-0.1262207,0,0,0,0,0,0
7.180069,0,0,0,0,0,0,0,0,0,0,0,0,0,0,0,0,0,0,-0.005805475,-0.008938892,-0.005747795,-0.001586914,-0.9953613,-0.1226807,0,0,0,0,0,0
7.19007,0,0,0,0,0,0,0,0,0,0,0,0,0,0,0,0,0,0,-0.0104956,-0.003633045,-0.008842433,-0.0008544922,-1.002319,-0.1230469,0,0,0,0,0,0
7.20007,0,0,0,0,0,0,0,0,0,0,0,0,0,0,0,0,0,0,-0.007496567,-0.0009995422,-0.004997711,0.001831055,-0.998291,-0.1279297,0,0,0,0,0,0
7.21007,0,0,0,0,0,0,0,0,0,0,0,0,0,0,0,0,0,0,-0.0054985,-0.002499222,-0.008247587,0.006469727,-0.99646,-0.1263428,0,0,0,0,0,0
7.22007,0,0,0,0,0,0,0,0,0,0,0,0,0,0,0,0,0,0,-0.0007496566,-0.001749239,-0.005497726,0.006958008,-1.001587,-0.1254883,0,0,0,0,0,0
7.230071,0,0,0,0,0,0,0,0,0,0,0,0,0,0,0,0,0,0,0.001749199,0.0002498855,-0.001999084,0.006103516,-1.009766,-0.1219482,0,0,0,0,0,0
7.240071,0,0,0,0,0,0,0,0,0,0,0,0,0,0,0,0,0,0,-0.0002499059,0.0002499059,0.001499435,0.005737305,-1.01062,-0.1204834,0,0,0,0,0,0
7.250071,0,0,0,0,0,0,0,0,0,0,0,0,0,0,0,0,0,0,0,0.0007497177,0.003248777,0.003417969,-1.008423,-0.1218262,0,0,0,0,0,0
7.260071,0,0,0,0,0,0,0,0,0,0,0,0,0,0,0,0,0,0,0.000749677,0.003248634,0.01099543,-0.002441406,-1.009155,-0.1246338,0,0,0,0,0,0
7.270072,0,0,0,0,0,0,0,0,0,0,0,0,0,0,0,0,0,0,0.001422407,0.002902493,0.01489688,-0.001098633,-1.001953,-0.1258545,0,0,0,0,0,0
7.280072,0,0,0,0,0,0,0,0,0,0,0,0,0,0,0,0,0,0,0.004594175,0.001441694,0.01510898,-0.0004882813,-0.9938965,-0.1256104,0,0,0,0,0,0
7.290072,0,0,0,0,0,0,0,0,0,0,0,0,0,0,0,0,0,0,0.00674746,0.0002499059,0.004998118,-0.0003662109,-0.987793,-0.126709,0,0,0,0,0,0
7.300072,0,0,0,0,0,0,0,0,0,0,0,0,0,0,0,0,0,0,0.009495651,-0.0004997711,0.001749199,-0.007324219,-0.9875488,-0.1247559,0,0,0,0,0,0
7.310072,0,0,0,0,0,0,0,0,0,0,0,0,0,0,0,0,0,0,0.02099126,-0.001999166,-0.00474809,-0.007446289,-0.9946289,-0.1217041,0,0,0,0,0,0
7.320073,0,0,0,0,0,0,0,0,0,0,0,0,0,0,0,0,0,0,0.02049147,-0.002498957,-0.007246966,-0.006225586,-0.9974365,-0.1171875,0,0,0,0,0,0
7.330073,0,0,0,0,0,0,0,0,0,0,0,0,0,0,0,0,0,0,0.01826069,-0.003133152,-0.007015961,-0.003295898,-1.000122,-0.1164551,0,0,0,0,0,0
7.340073,0,0,0,0,0,0,0,0,0,0,0,0,0,0,0,0,0,0,0.01681977,-0.001941465,-0.005093946,-0.0002441406,-1.008057,-0.1156006,0,0,0,0,0,0
7.350073,0,0,0,0,0,0,0,0,0,0,0,0,0,0,0,0,0,0,0.006458449,-0.0004613178,0.0002306589,0.003173828,-1.005859,-0.114624,0,0,0,0,0,0
7.360074,0,0,0,0,0,0,0,0,0,0,0,0,0,0,0,0,0,0,0.01180271,-0.0004998118,0.001211036,0.005126953,-0.9998779,-0.1176758,0,0,0,0,0,0
7.370074,0,0,0,0,0,0,0,0,0,0,0,0,0,0,0,0,0,0,0.01589705,-0.0009803359,0.001384075,0.00390625,-0.9951172,-0.1195068,0,0,0,0,0,0
7.380074,0,0,0,0,0,0,0,0,0,0,0,0,0,0,0,0,0,0,0.02323936,-0.0007496566,0.00224897,0.004638672,-0.9989014,-0.1177979,0,0,0,0,0,0
7.390074,0,0,0,0,0,0,0,0,0,0,0,0,0,0,0,0,0,0,0.02523948,-0.00174926,0.002249092,0.002685547,-0.9969482,-0.1188965,0,0,0,0,0,0
7.400074,0,0,0,0,0,0,0,0,0,0,0,0,0,0,0,0,0,0,0.01549417,-0.001499435,0.0007497177,0.003417969,-0.9926758,-0.1192627,0,0,0,0,0,0
7.410075,0,0,0,0,0,0,0,0,0,0,0,0,0,0,0,0,0,0,0.01974096,-0.002498855,-0.0009995422,0.004150391,-0.9916992,-0.1203613,0,0,0,0,0,0
7.420075,0,0,0,0,0,0,0,0,0,0,0,0,0,0,0,0,0,0,0.04588431,-0.005766777,-0.006016684,0.002319336,-0.994751,-0.1176758,0,0,0,0,0,0
7.430075,0,0,0,0,0,0,0,0,0,0,0,0,0,0,0,0,0,0,0.05140118,-0.005747531,-0.007419884,-0.003417969,-1.003906,-0.1165771,0,0,0,0,0,0
7.440075,0,0,0,0,0,0,0,0,0,0,0,0,0,0,0,0,0,0,0.0224897,-0.003748283,-0.002498855,0.004516602,-1.018921,-0.1015625,0,0,0,0,0,0
7.450076,0,0,0,0,0,0,0,0,0,0,0,0,0,0,0,0,0,0,0.01699222,-0.002498855,0.002498855,0.006591797,-1.017456,-0.107666,0,0,0,0,0,0
7.460076,0.007091154,0.0780027,0,0,0,0,0,0,0,0,0,0,0,0,0,0,0,0,0.01349492,-0.0002499059,0.00674746,0.006103516,-1.022095,-0.1066895,0,0,0,0,0,0
7.470076,0.007759253,0.2250183,0,0,0,0,0,0,0,0,0,0,0,0,0,0,0,0,0.01849226,0,0.01299458,0.009887695,-1.01709,-0.1043701,0,0,0,0,0,0
7.480076,0.009157421,0.3449295,0,0,0,0,0,0,0,0,0,0,0,0,0,0,0,0,0.01449336,0,0.01249428,0.00402832,-1.019531,-0.105957,0,0,0,0,0,0
7.490077,0.01008699,0.4740884,0,0,0,0,0,0,0,0,0,0,0,0,0,0,0,0,0.004498306,0.0002499059,0.00549793,0.004638672,-1.018799,-0.107666,0,0,0,0,0,0
7.500077,-0.01081606,0.6309372,0,0,0,0,0,0,0,0,0,0,0,0,0,0,0,0,0.006497798,0.002998993,0.01174609,0.004394531,-1.013672,-0.1143799,0,0,0,0,0,0
7.510077,-0.01849781,0.7140154,0,0,0,0,0,0,0,0,0,0,0,0,0,0,0,0,0.008669067,0.005766533,0.01370515,-0.00402832,-1.009521,-0.1158447,0,0,0,0,0,0
7.520077,-0.01888746,0.7970507,0,0,0,0,0,0,0,0,0,0,0,0,0,0,0,0,0.00224897,0.001749199,0.005497482,0,-1.007813,-0.1102295,0,0,0,0,0,0
7.530077,-0.02695013,0.8893543,0,0,0,0,0,0,0,0,0,0,0,0,0,0,0,0,0.002498937,0.0004997711,0.01049566,0.002563477,-1.005371,-0.1097412,0,0,0,0,0,0
7.540078,-0.03504427,0.9539828,0,0,0,0,0,0,0,0,0,0,0,0,0,0,0,0,-0.0004998118,0,0.00699706,-0.001464844,-1.001343,-0.1088867,0,0,0,0,0,0
7.550078,-0.05099206,1,0,0,0,0,0,0,0,0,0,0,0,0,0,0,0,0,-0.0002498855,-0.0007496566,0.001749199,-0.002929688,-1.005005,-0.1086426,0,0,0,0,0,0
7.560078,-0.05884144,1,0,0,0,0,0,0,0,0,0,0,0,0,0,0,0,0,0.001499435,-0.0009996236,0.003498683,-0.002929688,-1.00061,-0.1119385,0,0,0,0,0,0
7.570078,-0.06669273,1,0,0,0,0,0,0,0,0,0,0,0,0,0,0,0,0,0.01616568,0.00117246,0.0006919156,-0.006835938,-1.001831,-0.107666,0,0,0,0,0,0
7.580079,-0.06669273,1,0,0,0,0,0,0,0,0,0,0,0,0,0,0,0,0,0.005997742,-0.002249153,-0.003998494,0.001220703,-1.010254,-0.09619141,0,0,0,0,0,0
7.590079,-0.06669273,1,0,0,0,0,0,0,0,0,0,0,0,0,0,0,0,0,0.007996337,-0.005247597,-0.00674691,-0.0004882813,-1.01001,-0.1004639,0,0,0,0,0,0
7.600079,-0.06669273,1,0,0,0,0,0,0,0,0,0,0,0,0,0,0,0,0,0.0009996236,-0.002249153,-0.003248777,-0.002319336,-1.008301,-0.1004639,0,0,0,0,0,0
7.610079,-0.06669273,1,0,0,0,0,0,0,0,0,0,0,0,0,0,0,0,0,0.0002498855,-0.001499313,-0.00224897,-0.002197266,-1.006592,-0.09973145,0,0,0,0,0,0
7.62008,-0.06669273,1,0,0,0,0,0,0,0,0,0,0,0,0,0,0,0,0,0.0002498855,-0.001999166,2.034358E-08,0.002685547,-1.003906,-0.1071777,0,0,0,0,0,0
7.63008,-0.06669273,1,0,0,0,0,0,0,0,0,0,0,0,0,0,0,0,0,0.001249428,0,0.002748741,0.001220703,-1,-0.104126,0,0,0,0,0,0
7.64008,-0.05884144,1,0,0,0,0,0,0,0,0,0,0,0,0,0,0,0,0,0.007996704,0,0.007246966,0.003295898,-0.9945068,-0.105957,0,0,0,0,0,0
7.65008,-0.05884144,1,0,0,0,0,0,0,0,0,0,0,0,0,0,0,0,0,0.009496016,-0.0004997915,0.005997518,0,-0.9986572,-0.1047363,0,0,0,0,0,0
7.66008,-0.05099206,1,0,0,0,0,0,0,0,0,0,0,0,0,0,0,0,0,0.01149474,-0.0009995422,0.004248054,-0.0006103516,-1.000488,-0.1036377,0,0,0,0,0,0
7.670081,-0.05099206,1,0,0,0,0,0,0,0,0,0,0,0,0,0,0,0,0,0.006497554,-0.001249529,0.001499435,-0.001708984,-1.003418,-0.1020508,0,0,0,0,0,0
7.680081,-0.05099206,1,0,0,0,0,0,0,0,0,0,0,0,0,0,0,0,0,0.01059167,-0.002172165,0.002152918,-0.00390625,-1.011353,-0.1011963,0,0,0,0,0,0
7.690081,-0.05099206,1,0,0,0,0,0,0,0,0,0,0,0,0,0,0,0,0,0.008650532,-0.001941608,0.002402925,-0.001342773,-1.008911,-0.1027832,0,0,0,0,0,0
7.700081,-0.05099206,1,0,0,0,0,0,0,0,0,0,0,0,0,0,0,0,0,0.007919025,-0.002171982,0.002863897,-0.0006103516,-1.011841,-0.1008301,0,0,0,0,0,0
7.710082,-0.05099206,1,0,0,0,0,0,0,0,0,0,0,0,0,0,0,0,0,0.003748283,-0.001249428,0.001249428,-0.0007324219,-1.013794,-0.09875488,0,0,0,0,0,0
7.720082,-0.05099206,1,0,0,0,0,0,0,0,0,0,0,0,0,0,0,0,0,0.002249153,-0.0002499059,0.001249529,-0.001831055,-1.010742,-0.1019287,0,0,0,0,0,0
7.730082,-0.05099206,1,0,0,0,0,0,0,0,0,0,0,0,0,0,0,0,0,0.001249448,0.0009995829,0.001249468,0,-1.007324,-0.1020508,0,0,0,0,0,0
7.740082,-0.05099206,1,0,0,0,0,0,0,0,0,0,0,0,0,0,0,0,0,-0.0004805648,0.001191809,-0.0004805648,-0.002197266,-1.006836,-0.105835,0,0,0,0,0,0
7.750082,-0.05099206,1,0,0,0,0,0,0,0,0,0,0,0,0,0,0,0,0,0.0002306589,0.0002306589,0.0002306589,0.0001220703,-1.00293,-0.1113281,0,0,0,0,0,0
7.760083,-0.04314433,1,0,0,0,0,0,0,0,0,0,0,0,0,0,0,0,0,0.0002306792,-0.0004613585,0,0.002197266,-1.002808,-0.109375,0,0,0,0,0,0
7.770083,-0.04314433,1,0,0,0,0,0,0,0,0,0,0,0,0,0,0,0,0,-0.0002498855,-0.001672374,0.0004997711,0.007080078,-1.005371,-0.1053467,0,0,0,0,0,0
7.780083,-0.04314433,1,0,0,0,0,0,0,0,0,0,0,0,0,0,0,0,0,0,-0.0007496566,0.0002498855,0.005615234,-1.008545,-0.1047363,0,0,0,0,0,0
7.790083,-0.035298,1,0,0,0,0,0,0,0,0,0,0,0,0,0,0,0,0,0.0007496566,-0.0004997711,0.002498855,0.001831055,-1.011719,-0.100708,0,0,0,0,0,0
7.800084,-0.035298,1,0,0,0,0,0,0,0,0,0,0,0,0,0,0,0,0,0.0009803359,0.0004613585,0.009611296,0.001831055,-1.014648,-0.09960938,0,0,0,0,0,0
7.810084,-0.035298,1,0,0,0,0,0,0,0,0,0,0,0,0,0,0,0,0,-0.0002114322,0.0004805444,0.0110333,-0.0006103516,-1.015381,-0.09765625,0,0,0,0,0,0
7.820084,-0.02745281,1,0,0,0,0,0,0,0,0,0,0,0,0,0,0,0,0,-0.005804987,-0.0007496566,0.01007221,-0.002807617,-1.01123,-0.1029053,0,0,0,0,0,0
7.830084,-0.01960851,1,0,0,0,0,0,0,0,0,0,0,0,0,0,0,0,0,-0.009399823,-0.002172145,0.009149937,-0.0007324219,-1.00647,-0.09960938,0,0,0,0,0,0
7.840085,-0.01960851,1,0,0,0,0,0,0,0,0,0,0,0,0,0,0,0,0,-0.005497482,-0.001249428,0.00449794,0.0006103516,-1.002197,-0.1016846,0,0,0,0,0,0
7.850085,-0.01960851,1,0,0,0,0,0,0,0,0,0,0,0,0,0,0,0,0,-0.004997711,-0.001999084,0.003998169,-0.001220703,-0.9935303,-0.1036377,0,0,0,0,0,0
7.860085,-0.01176485,1,0,0,0,0,0,0,0,0,0,0,0,0,0,0,0,0,-0.003902259,-0.005266965,0.004325083,-0.002807617,-0.9870605,-0.1010742,0,0,0,0,0,0
7.870085,-0.01176485,1,0,0,0,0,0,0,0,0,0,0,0,0,0,0,0,0,0.003306334,-0.005536098,0.001941465,-0.001098633,-0.9910889,-0.09899902,0,0,0,0,0,0
7.880085,-0.01176485,1,0,0,0,0,0,0,0,0,0,0,0,0,0,0,0,0,0.005997457,-0.004824854,-0.0001922666,-0.0006103516,-0.99646,-0.09729004,0,0,0,0,0,0
7.890086,-0.01176485,1,0,0,0,0,0,0,0,0,0,0,0,0,0,0,0,0,0.002998566,-0.002537248,-0.002306589,-0.001464844,-1.000488,-0.1008301,0,0,0,0,0,0
7.900086,-0.01176485,1,0,0,0,0,0,0,0,0,0,0,0,0,0,0,0,0,0.005785984,-0.004055991,-0.004305877,-0.001220703,-1.004272,-0.1010742,0,0,0,0,0,0
7.910086,-0.01176485,1,0,0,0,0,0,0,0,0,0,0,0,0,0,0,0,0,0.005516892,-0.001653167,-0.002633503,0.001953125,-1.005981,-0.1022949,0,0,0,0,0,0
7.920086,-0.01176485,1,0,0,0,0,0,0,0,0,0,0,0,0,0,0,0,0,0.002998627,0,0,0.0004882813,-1.010864,-0.1004639,0,0,0,0,0,0
7.930087,-0.01176485,1,0,0,0,0,0,0,0,0,0,0,0,0,0,0,0,0,0.005036307,0,0.001191788,0.0006103516,-1.009766,-0.1016846,0,0,0,0,0,0
7.940087,-0.01176485,1,0,0,0,0,0,0,0,0,0,0,0,0,0,0,0,0,0.004555762,0,-0.0004613585,-0.002929688,-1.011475,-0.1003418,0,0,0,0,0,0
7.950087,-0.01176485,1,0,0,0,0,0,0,0,0,0,0,0,0,0,0,0,0,0.0009611296,-0.001441694,-0.003575427,-0.002807617,-1.014038,-0.1011963,0,0,0,0,0,0
7.960087,-0.01176485,1,0,0,0,0,0,0,0,0,0,0,0,0,0,0,0,0,-0.0002306589,-0.001383953,-0.002767907,-0.003051758,-1.014038,-0.1026611,0,0,0,0,0,0
7.970088,-0.01176485,1,0,0,0,0,0,0,0,0,0,0,0,0,0,0,0,0,-0.001249428,-0.0009995422,-0.001999084,-0.004638672,-1.021484,-0.09997559,0,0,0,0,0,0
7.980088,-0.01176485,1,0,0,0,0,0,0,0,0,0,0,0,0,0,0,0,0,-0.01224478,-0.001499395,0.001749239,-0.0078125,-1.032715,-0.09887695,0,0,0,0,0,0
7.990088,-0.01176485,1,0,0,0,0,0,0,0,0,0,0,0,0,0,0,0,0,-0.0297388,0.0004998118,0.004998118,-0.006713867,-1.035645,-0.1015625,0,0,0,0,0,0
8.000088,-0.01176485,1,0,0,0,0,0,0,0,0,0,0,0,0,0,0,0,0,-0.02349116,0.001249529,-0.0007497177,-0.007568359,-1.024048,-0.1008301,0,0,0,0,0,0
8.010088,0,1,0,0,0,0,0,0,0,0,0,0,0,0,0,0,0,0,-0.04494241,0.005536098,-0.01266775,-0.01147461,-1.007324,-0.1068115,0,0,0,0,0,0
8.020088,0,1,0,0,0,0,0,0,0,0,0,0,0,0,0,0,0,0,-0.01568481,0.004382519,-0.0117636,-0.01342773,-1.000732,-0.1107178,0,0,0,0,0,0
8.030088,0.003921574,1,0,0,0,0,0,0,0,0,0,0,0,0,0,0,0,0,-0.01024531,0.00674691,-0.01824165,-0.01220703,-1.006348,-0.1137695,0,0,0,0,0,0
8.040089,0.003921574,1,0,0,0,0,0,0,0,0,0,0,0,0,0,0,0,0,-0.01899203,0.01624323,-0.03823402,-0.006958008,-1.018799,-0.121582,0,0,0,0,0,0
8.050089,0.003921574,1,0,0,0,0,0,0,0,0,0,0,0,0,0,0,0,0,-0.04661438,0.02506599,-0.05843602,-0.001342773,-1.019653,-0.1191406,0,0,0,0,0,0
8.060089,0.003921574,1,0,0,0,0,0,0,0,0,0,0,0,0,0,0,0,0,-0.02473867,0.009245765,-0.01774187,-0.001586914,-1.007935,-0.1246338,0,0,0,0,0,0
8.070089,0.01176485,1,0,0,0,0,0,0,0,0,0,0,0,0,0,0,0,0,-0.02398901,0.008496109,-0.01749199,0.008300781,-1.007568,-0.1151123,0,0,0,0,0,0
8.08009,0.01176485,1,0,0,0,0,0,0,0,0,0,0,0,0,0,0,0,0,-0.05422736,0.01549355,-0.03373589,0.009765625,-1.007813,-0.1125488,0,0,0,0,0,0
8.09009,0.01960851,1,0,0,0,0,0,0,0,0,0,0,0,0,0,0,0,0,-0.04878693,0.02016452,-0.02789196,0.009277344,-1.003174,-0.1101074,0,0,0,0,0,0
8.10009,0.01960851,1,0,0,0,0,0,0,0,0,0,0,0,0,0,0,0,0,-0.02375787,0.01084097,-0.01430085,0.0123291,-0.9957275,-0.1119385,0,0,0,0,0,0
8.11009,0.02745281,1,0,0,0,0,0,0,0,0,0,0,0,0,0,0,0,0,-0.0393487,0.02883389,-0.02760367,0.01452637,-0.9893799,-0.114624,0,0,0,0,0,0
8.12009,0.035298,1,0,0,0,0,0,0,0,0,0,0,0,0,0,0,0,0,-0.03646531,0.02952592,-0.0247779,0.01318359,-0.9893799,-0.1121826,0,0,0,0,0,0
8.130091,0.035298,1,0,0,0,0,0,0,0,0,0,0,0,0,0,0,0,0,-0.01524302,0.01499313,-0.01224439,0.009643555,-0.9876709,-0.1169434,0,0,0,0,0,0
8.140091,0.035298,1,0,0,0,0,0,0,0,0,0,0,0,0,0,0,0,0,-0.01424348,0.01324393,-0.01224439,0.01196289,-0.9909668,-0.1169434,0,0,0,0,0,0
8.150091,0.04314433,1,0,0,0,0,0,0,0,0,0,0,0,0,0,0,0,0,-0.03048705,0.02262496,-0.02596971,0.01623535,-0.9891357,-0.1153564,0,0,0,0,0,0
8.160091,0.05099206,1,0,0,0,0,0,0,0,0,0,0,0,0,0,0,0,0,-0.03148395,0.02208486,-0.02473737,0.0135498,-0.9829102,-0.1152344,0,0,0,0,0,0
8.170092,0.05884144,1,0,0,0,0,0,0,0,0,0,0,0,0,0,0,0,0,-0.01360887,0.008534378,-0.0129169,0.01806641,-0.9781494,-0.1218262,0,0,0,0,0,0
8.180092,0.06669273,1,0,0,0,0,0,0,0,0,0,0,0,0,0,0,0,0,-0.01153396,0.008304453,-0.01591687,0.01574707,-0.9787598,-0.1160889,0,0,0,0,0,0
8.190092,0.07454614,1,0,0,0,0,0,0,0,0,0,0,0,0,0,0,0,0,-0.01434012,0.01776169,-0.03919484,0.02661133,-0.9831543,-0.1234131,0,0,0,0,0,0
8.200092,0.08240198,1,0,0,0,0,0,0,0,0,0,0,0,0,0,0,0,0,0.0002306589,0.01755024,-0.03681132,0.02575684,-0.9891357,-0.1149902,0,0,0,0,0,0
8.210093,0.09026043,1,0,0,0,0,0,0,0,0,0,0,0,0,0,0,0,0,-0.001499313,0.008496109,-0.0172421,0.02282715,-1.005981,-0.1368408,0,0,0,0,0,0
8.220093,0.09812176,1,0,0,0,0,0,0,0,0,0,0,0,0,0,0,0,0,-0.01243707,0.009130731,-0.03533112,0.01782227,-1.008301,-0.1206055,0,0,0,0,0,0
8.230093,0.1059862,1,0,0,0,0,0,0,0,0,0,0,0,0,0,0,0,0,-0.01066846,0.009649709,-0.03842597,0.01782227,-0.9923096,-0.1279297,0,0,0,0,0,0
8.240093,0.113854,1,0,0,0,0,0,0,0,0,0,0,0,0,0,0,0,0,0.006919767,0.001153294,-0.01983666,0.01123047,-0.9893799,-0.1309814,0,0,0,0,0,0
8.250093,0.1217254,1,0,0,0,0,0,0,0,0,0,0,0,0,0,0,0,0,0.02281722,-0.00918835,-0.03988688,0.006835938,-1.009155,-0.1270752,0,0,0,0,0,0
8.260094,0.1296006,1,0,0,0,0,0,0,0,0,0,0,0,0,0,0,0,0,0.01649379,-0.01799323,-0.03873542,0.01049805,-1.016602,-0.126709,0,0,0,0,0,0
8.270094,0.1374799,1,0,0,0,0,0,0,0,0,0,0,0,0,0,0,0,0,0.005747836,-0.01224539,-0.0169936,0.0213623,-1.009521,-0.1099854,0,0,0,0,0,0
8.280094,0.1453634,1,0,0,0,0,0,0,0,0,0,0,0,0,0,0,0,0,0.000134729,-0.02712074,-0.0286393,0.02038574,-1.013062,-0.1343994,0,0,0,0,0,0
8.290094,0.1453634,1,0,0,0,0,0,0,0,0,0,0,0,0,0,0,0,0,-0.001749199,-0.02502778,-0.02189451,0.03405762,-1.012085,-0.1159668,0,0,0,0,0,0
8.300095,0.1453634,1,0,0,0,0,0,0,0,0,0,0,0,0,0,0,0,0,0.002998566,-0.008073061,-0.007381084,0.03820801,-1.002686,-0.125,0,0,0,0,0,0
8.310095,0.1453634,1,0,0,0,0,0,0,0,0,0,0,0,0,0,0,0,0,0.005535814,-0.006458449,-0.004382519,0.03845215,-1.005371,-0.1220703,0,0,0,0,0,0
8.320095,0.1453634,1,0,0,0,0,0,0,0,0,0,0,0,0,0,0,0,0,0.003248573,-0.005747571,-0.009745964,0.03808594,-1.007935,-0.119751,0,0,0,0,0,0
8.330095,0.1453634,1,0,0,0,0,0,0,0,0,0,0,0,0,0,0,0,0,0.0009995422,-0.0002498855,-0.01299405,0.03234863,-1.004761,-0.1131592,0,0,0,0,0,0
8.340096,0.1453634,1,0,0,0,0,0,0,0,0,0,0,0,0,0,0,0,0,0.001691519,0.005497421,-0.01464699,0.03503418,-1.013062,-0.1142578,0,0,0,0,0,0
8.350096,0.1453634,1,0,0,0,0,0,0,0,0,0,0,0,0,0,0,0,0,-0.002114424,0.01007261,-0.01656986,0.02709961,-1.009399,-0.1185303,0,0,0,0,0,0
8.360096,0.1453634,1,0,0,0,0,0,0,0,0,0,0,0,0,0,0,0,0,-0.004613584,0.005766981,-0.01038057,0.02404785,-1.006226,-0.119751,0,0,0,0,0,0
8.370096,0.1453634,1,0,0,0,0,0,0,0,0,0,0,0,0,0,0,0,0,-0.007381084,0.005305154,-0.01130229,0.02832031,-1.006592,-0.1195068,0,0,0,0,0,0
8.380096,0.1453634,1,0,0,0,0,0,0,0,0,0,0,0,0,0,0,0,0,-0.01374421,0.01299458,-0.02174092,0.02941895,-1.001221,-0.1221924,0,0,0,0,0,0
8.390097,0.1453634,1,0,0,0,0,0,0,0,0,0,0,0,0,0,0,0,0,-0.005247983,0.01347561,-0.01805078,0.03112793,-1.001465,-0.1234131,0,0,0,0,0,0
8.400097,0.1453634,1,0,0,0,0,0,0,0,0,0,0,0,0,0,0,0,0,-0.006727907,0.01011107,-0.01632,0.03381348,-0.9976807,-0.1245117,0,0,0,0,0,0
8.410097,0.1453634,1,0,0,0,0,0,0,0,0,0,0,0,0,0,0,0,0,-0.003229225,0.002537248,-0.008765038,0.03637695,-1.007324,-0.1220703,0,0,0,0,0,0
8.420097,0.1453634,1,0,0,0,0,0,0,0,0,0,0,0,0,0,0,0,0,-0.006228339,0.001153396,-0.009688528,0.03027344,-0.9970703,-0.118042,0,0,0,0,0,0
8.430098,0.1453634,1,0,0,0,0,0,0,0,0,0,0,0,0,0,0,0,0,-0.009803561,-0.0002306792,-0.01897271,0.03100586,-0.9886475,-0.1241455,0,0,0,0,0,0
8.440098,0.1453634,1,0,0,0,0,0,0,0,0,0,0,0,0,0,0,0,0,0.0009993387,-0.002499262,-0.01699578,0.03271484,-0.9835205,-0.1246338,0,0,0,0,0,0
8.450098,0.1453634,1,0,0,0,0,0,0,0,0,0,0,0,0,0,0,0,0,0.004748029,-0.002998749,-0.0112453,0.0357666,-0.9882813,-0.1220703,0,0,0,0,0,0
8.460098,0.1453634,1,0,0,0,0,0,0,0,0,0,0,0,0,0,0,0,0,0.0004998118,-0.001249529,-0.004248401,0.03991699,-0.996582,-0.1176758,0,0,0,0,0,0
8.470098,0.1453634,1,0,0,0,0,0,0,0,0,0,0,0,0,0,0,0,0,-0.002498855,0.0009995422,-0.003248512,0.0456543,-0.9921875,-0.1257324,0,0,0,0,0,0
8.480099,0.1453634,1,0,0,0,0,0,0,0,0,0,0,0,0,0,0,0,0,0.005439884,-0.003825271,-0.006478001,0.04125977,-0.9907227,-0.1228027,0,0,0,0,0,0
8.490099,0.1453634,1,0,0,0,0,0,0,0,0,0,0,0,0,0,0,0,0,0.01559018,-0.003344869,-0.005286437,0.04150391,-1.002319,-0.114624,0,0,0,0,0,0
8.500099,0.1453634,1,0,0,0,0,0,0,0,0,0,0,0,0,0,0,0,0,0.01374481,-0.006247627,-0.004498306,0.03759766,-1.002197,-0.1148682,0,0,0,0,0,0
8.510099,0.1453634,1,0,0,0,0,0,0,0,0,0,0,0,0,0,0,0,0,0.00674691,-0.002748741,-0.002498855,0.03955078,-0.9974365,-0.1179199,0,0,0,0,0,0
8.5201,0.1453634,1,0,0,0,0,0,0,0,0,0,0,0,0,0,0,0,0,0.01874221,-0.004997914,-0.0004997711,0.03796387,-0.9985352,-0.1202393,0,0,0,0,0,0
8.5301,0.1453634,1,0,0,0,0,0,0,0,0,0,0,0,0,0,0,0,0,0.02998759,-0.003998332,0.005497788,0.03869629,-1.002808,-0.1226807,0,0,0,0,0,0
8.5401,0.1453634,1,0,0,0,0,0,0,0,0,0,0,0,0,0,0,0,0,0.02373913,-0.0007496566,0.009995421,0.03356934,-1.000244,-0.1246338,0,0,0,0,0,0
8.5501,0.1451673,0.9926302,0,0,0,0,0,0,0,0,0,0,0,0,0,0,0,0,0.06072463,0.0004997711,0.0324864,0.0333252,-1.005737,-0.111084,0,0,0,0,0,0
8.560101,0.1528362,0.983638,0,0,0,0,0,0,0,0,0,0,0,0,0,0,0,0,0.05447688,0.0004613585,0.03262079,0.03662109,-1.006348,-0.1143799,0,0,0,0,0,0
8.570101,0.1528362,0.983638,0,0,0,0,0,0,0,0,0,0,0,0,0,0,0,0,0.0254904,-0.0007497177,0.01574407,0.04101563,-1.016235,-0.1138916,0,0,0,0,0,0
8.580101,0.1526237,0.9744439,0,0,0,0,0,0,0,0,0,0,0,0,0,0,0,0,0.02623798,-0.001249428,0.01649245,0.03552246,-1.017334,-0.1173096,0,0,0,0,0,0
8.590101,0.1604867,0.974663,0,0,0,0,0,0,0,0,0,0,0,0,0,0,0,0,0.05097869,-0.004997955,0.03198663,0.02966309,-1.018921,-0.1092529,0,0,0,0,0,0
8.600101,0.1602607,0.9654732,0,0,0,0,0,0,0,0,0,0,0,0,0,0,0,0,0.02024238,-0.004748212,0.01724351,0.02880859,-1.024292,-0.1081543,0,0,0,0,0,0
8.610102,0.1678791,0.9565206,0,0,0,0,0,0,0,0,0,0,0,0,0,0,0,0,0.03623483,-0.01424409,0.03673466,0.02893066,-1.014771,-0.1094971,0,0,0,0,0,0
8.620102,0.1673883,0.9381531,0,0,0,0,0,0,0,0,0,0,0,0,0,0,0,0,0.01174462,-0.01049519,0.01674233,0.02355957,-1.008789,-0.1118164,0,0,0,0,0,0
8.630102,0.1752213,0.9384076,0,0,0,0,0,0,0,0,0,0,0,0,0,0,0,0,0.009495651,-0.01224439,0.01274416,0.02685547,-1.000366,-0.1087646,0,0,0,0,0,0
8.640102,0.1746935,0.9200526,0,0,0,0,0,0,0,0,0,0,0,0,0,0,0,0,0.01774261,-0.02823825,0.01674294,0.02355957,-0.9908447,-0.1118164,0,0,0,0,0,0
8.650103,0.1819455,0.9019849,0,0,0,0,0,0,0,0,0,0,0,0,0,0,0,0,0.01849153,-0.0277373,0.009495651,0.02612305,-0.9946289,-0.1109619,0,0,0,0,0,0
8.660103,0.1891426,0.8839523,0,0,0,0,0,0,0,0,0,0,0,0,0,0,0,0,0.01660836,-0.02573909,0.003652353,0.0324707,-0.9997559,-0.1114502,0,0,0,0,0,0
8.670103,0.1962837,0.8659575,0,0,0,0,0,0,0,0,0,0,0,0,0,0,0,0,0.009995891,-0.02199087,0.0004997711,0.03112793,-1.006592,-0.1065674,0,0,0,0,0,0
8.680103,0.1959511,0.856806,0,0,0,0,0,0,0,0,0,0,0,0,0,0,0,0,0.002499059,-0.008246895,-0.0007497177,0.02954102,-1.000488,-0.1000977,0,0,0,0,0,0
8.690104,0.195613,0.8476564,0,0,0,0,0,0,0,0,0,0,0,0,0,0,0,0,0.008995879,-0.01074508,-0.001999084,0.02734375,-1.005493,-0.1036377,0,0,0,0,0,0
8.700104,0.2030121,0.8388614,0,0,0,0,0,0,0,0,0,0,0,0,0,0,0,0,0.002748782,-0.007746757,0.0009996236,0.03076172,-1.011108,-0.105835,0,0,0,0,0,0
8.710104,0.2030121,0.8388614,0,0,0,0,0,0,0,0,0,0,0,0,0,0,0,0,-0.005248024,-0.003248777,0.002499059,0.04187012,-1.012085,-0.105957,0,0,0,0,0,0
