Timestamp, Left Stick X, Left Stick Y, Right Stick X, Right Stick Y, D-Pad Up, D-Pad Right,D-Pad Down, D-Pad Left, Button North, Button East, Button South, Button West, L1, R1, L2, R2, L3, R3,Gyroscope X, Gyroscope Y, Gyroscope Z, Accelerometer X, Accelerometer Y, Accelerometer Z,Touch 1, Touch 2, Touch 1 Pos X, Touch 1 Pos Y, Touch 2 Pos X, Touch 2 Pos Y
0,-1,-0.1690417,0,0,0,0,0,0,0,0,0,0,0,0,0,0,0,0,0,0,0,0.007324219,-0.9632568,-0.241333,0,0,0,0,0,0
0.005,-1,-0.1927661,0,0,0,0,0,0,0,0,0,0,0,0,0,0,0,0,-0.08746707,0.02798946,-0.05722845,0.07348633,-0.9354248,-0.3881836,0,0,0,0,0,0
0.01,-1,-0.2006854,0,0,0,0,0,0,0,0,0,0,0,0,0,0,0,0,0,0,0,0.1035156,-0.9342041,-0.4156494,0,0,0,0,0,0
0.015,-1,-0.2086106,0,0,0,0,0,0,0,0,0,0,0,0,0,0,0,0,0,0,0,0.1516113,-0.9415283,-0.4470215,0,0,0,0,0,0
0.02,-1,-0.2165419,0,0,0,0,0,0,0,0,0,0,0,0,0,0,0,0,0,0,0,0.1711426,-0.9545898,-0.3756104,0,0,0,0,0,0
0.025,-1,-0.2165419,0,0,0,0,0,0,0,0,0,0,0,0,0,0,0,0,0,0,0,0.05065918,-0.9573975,-0.3682861,0,0,0,0,0,0
0.03,-1,-0.2165419,0,0,0,0,0,0,0,0,0,0,0,0,0,0,0,0,0,0,0,0.03161621,-0.9522705,-0.3537598,0,0,0,0,0,0
0.035,-1,-0.2165419,-0.01522274,-0.0058549,0,0,0,0,0,0,0,0,0,0,0,1,0,0,0,0,0,0.05053711,-0.9644775,-0.3371582,0,0,0,0,0,0
0.04,-1,-0.2165419,-0.04769778,-0.02225896,0,0,0,0,0,0,0,0,0,0,0,1,0,0,0,0,0,0.05310059,-0.9036865,-0.3376465,0,0,0,0,0,0
0.04499999,-1,-0.2165419,-0.1249879,-0.0826191,0,0,0,0,0,0,0,0,0,0,0,1,0,0,-0.1339496,0.04923147,0.04373353,0.1246338,-0.8509521,-0.4217529,0,0,0,0,0,0
0.04999999,-1,-0.2165419,-0.1589688,-0.119838,0,0,0,0,0,0,0,0,0,0,0,1,0,0,0,0,0,-0.01220703,-0.8609619,-0.1557617,0,0,0,0,0,0
0.05499999,-1,-0.2165419,-0.1786224,-0.1626264,0,0,0,0,0,0,0,0,0,0,0,1,0,0,0,0,0,-0.06140137,-0.8449707,-0.3358154,0,0,0,0,0,0
0.05999999,-1,-0.2086106,-0.2071187,-0.2551463,0,0,0,0,0,0,0,0,0,0,0,1,0,0,-0.1033352,0.06181658,0.05881802,0.1206055,-0.8377686,-0.4118652,0,0,0,0,0,0
0.06499999,-1,-0.2086106,-0.2174345,-0.3119713,0,0,0,0,0,0,0,0,0,0,0,1,0,0,0,0,0,0.1877441,-0.847168,-0.5327148,0,0,0,0,0,0
0.06999999,-1,-0.1927661,-0.2023498,-0.3500973,0,0,0,0,0,0,0,0,0,0,0,1,0,0,0,0,0,0.239502,-0.8254395,-0.6612549,0,0,0,0,0,0
0.075,-1,-0.1690417,-0.1220497,-0.4255248,0,0,0,0,0,0,0,0,0,0,0,1,0,0,0,0,0,0.1472168,-0.7585449,-0.6809082,0,0,0,0,0,0
0.08,-1,-0.1690417,-0.06441572,-0.4848131,0,0,0,0,0,0,0,0,0,0,0,1,0,0,0,0,0,0.1057129,-0.7314453,-0.6896973,0,0,0,0,0,0
0.085,-1,-0.1611441,0.0692353,-0.6595572,0,0,0,0,0,0,0,0,0,0,0,1,0,0,-0.01549417,-0.04973128,0.06522544,0.1694336,-0.715332,-0.7158203,0,0,0,0,0,0
0.09,-1,-0.1611441,0.124467,-0.7807474,0,0,0,0,0,0,0,0,0,0,0,1,0,0,0,0,0,0.1661377,-0.7384033,-0.6512451,0,0,0,0,0,0
0.09500001,-1,-0.1611441,0.1975608,-0.9025819,0,0,0,0,0,0,0,0,0,0,0,1,0,0,0,0,0,0.1655273,-0.7658691,-0.6199951,0,0,0,0,0,0
0.1,-1,-0.1611441,0.3283107,-1,0,0,0,0,0,0,0,0,0,0,0,1,0,0,0,0,0,0.04724121,-0.9171143,-0.3254395,0,0,0,0,0,0
0.105,-1,-0.1611441,0.4172379,-1,0,0,0,0,0,0,0,0,0,0,0,1,0,0,0,0,0,-0.02331543,-0.8914795,-0.3798828,0,0,0,0,0,0
0.11,-1,-0.1611441,0.5707892,-0.9779255,0,0,0,0,0,0,0,0,0,0,0,1,0,0,-0.0288349,-0.05836185,0.07381735,-0.03271484,-0.8294678,-0.4821777,0,0,0,0,0,0
0.115,-1,-0.1611441,0.6274477,-0.9551592,0,0,0,0,0,0,0,0,0,0,0,1,0,0,0,0,0,-0.04077148,-0.8140869,-0.5010986,0,0,0,0,0,0
0.12,-1,-0.1611441,0.6845161,-0.9327032,0,0,0,0,0,0,0,0,0,0,0,1,0,0,0,0,0,-0.1256104,-0.8222656,-0.4176025,0,0,0,0,0,0
0.125,-1,-0.1611441,0.7323431,-0.892418,0,0,0,0,0,0,0,0,0,0,0,1,0,0,0.03223523,-0.07521556,0.06097208,-0.1571045,-0.8787842,-0.3752441,0,0,0,0,0,0
0.13,-1,-0.1611441,0.7481521,-0.8761782,0,0,0,0,0,0,0,0,0,0,0,1,0,0,0,0,0,-0.1176758,-0.9362793,-0.3790283,0,0,0,0,0,0
0.135,-1,-0.1611441,0.7566752,-0.8767824,0,0,0,0,0,0,0,0,0,0,0,1,0,0,0,0,0,-0.06018066,-0.9794922,-0.4058838,0,0,0,0,0,0
0.14,-1,-0.1611441,0.763997,-0.8599966,0,0,0,0,0,0,0,0,0,0,0,0,0,0,0.02973638,-0.08671029,0.03398444,-0.04443359,-1.014404,-0.4414063,0,0,0,0,0,0
0.145,-1,-0.1611441,0.7719339,-0.851927,0,0,0,0,0,0,0,0,0,0,0,0,0,0,0,0,0,-0.05554199,-0.9957275,-0.4050293,0,0,0,0,0,0
0.15,-1,-0.1611441,0.7798811,-0.8438712,0,0,0,0,0,0,0,0,0,0,0,0,0,0,0,0,0,-0.07189941,-0.9910889,-0.3933105,0,0,0,0,0,0
0.155,-1,-0.1769445,0.7945727,-0.810544,0,0,0,0,0,0,0,0,0,0,0,0,0,0,0,0,0,-0.1022949,-0.8790283,-0.37146,0,0,0,0,0,0
0.16,-1,-0.1848525,0.810544,-0.7945727,0,0,0,0,0,0,0,0,0,0,0,0,0,0,0,0,0,-0.08630371,-0.822876,-0.4145508,0,0,0,0,0,0
0.165,-1,-0.1927661,0.8179268,-0.778028,0,0,0,0,0,0,0,0,0,0,0,0,0,0,0,0,0,-0.0859375,-0.7966309,-0.4473877,0,0,0,0,0,0
0.17,-1,-0.2324234,0.849466,-0.7377991,0,0,0,0,0,0,0,0,0,0,0,0,0,0,0,0,0,-0.07653809,-0.8266602,-0.5070801,0,0,0,0,0,0
0.175,-1,-0.2483314,0.855685,-0.7044476,0,0,0,0,0,0,0,0,0,0,0,0,0,0,0,0,0,-0.08422852,-0.833374,-0.524292,0,0,0,0,0,0
0.18,-1,-0.2722459,0.8712887,-0.6803213,0,0,0,0,0,0,0,0,0,0,0,0,0,0,0,0,0,-0.1079102,-0.8292236,-0.5096436,0,0,0,0,0,0
0.185,-1,-0.3605264,0.9021508,-0.6239545,0,0,0,0,0,0,0,0,0,0,0,0,0,0,0,0,0,-0.06848145,-0.8383789,-0.4887695,0,0,0,0,0,0
0.19,-1,-0.4009901,0.9086004,-0.5911855,0,0,0,0,0,0,0,0,0,0,0,0,0,0,0,0,0,-0.001586914,-0.8947754,-0.5435791,0,0,0,0,0,0
0.1949999,-0.9568346,-0.5201051,0.9222788,-0.5343676,0,0,0,0,0,0,0,0,0,0,0,0,0,0,0.04451717,0.005766472,-0.1229412,0.02697754,-1.010742,-0.4342041,0,0,0,0,0,0
0.1999999,-0.9345874,-0.5846143,0.9289486,-0.5020276,0,0,0,0,0,0,0,0,0,0,0,0,0,0,0,0,0,-0.007568359,-1.001953,-0.4315186,0,0,0,0,0,0
0.2049999,-0.8857571,-0.6394928,0.9357188,-0.4698335,0,0,0,0,0,0,0,0,0,0,0,0,0,0,0,0,0,-0.03259277,-1.015991,-0.425415,0,0,0,0,0,0
0.2099999,-0.7748705,-0.7748705,0.9481722,-0.3816295,0,0,0,0,0,0,0,0,0,0,0,0,0,0,0,0,0,0.04187012,-1.079712,-0.3696289,0,0,0,0,0,0
0.2149999,-0.7031947,-0.8382716,0.9627835,-0.318308,0,0,0,0,0,0,0,0,0,0,0,1,0,0,0,0,0,0.0793457,-1.101807,-0.3220215,0,0,0,0,0,0
0.2199999,-0.631721,-0.8939448,0.9685656,-0.2470431,0,0,0,0,0,0,0,0,0,0,0,1,0,0,0,0,0,0.08764648,-1.122559,-0.3023682,0,0,0,0,0,0
0.2249999,-0.4647444,-0.9890714,0.9828763,-0.1213911,0,0,0,0,0,0,0,0,0,0,0,1,0,0,0,0,0,0.1055908,-1.052246,-0.286499,0,0,0,0,0,0
0.2299999,-0.3847782,-1,0.9910821,-0.05875981,0,0,0,0,0,0,0,0,0,0,0,1,0,0,0,0,0,0.06188965,-1.095215,-0.06323242,0,0,0,0,0,0
0.2349999,-0.2562958,-1,0.9911698,0.06660035,0,0,0,0,0,0,0,0,0,0,0,1,0,0,-0.1584626,0.09111026,-0.03805872,0.1342773,-1.080933,-0.3184814,0,0,0,0,0,0
0.2399999,-0.2006854,-1,0.9924375,0.1372937,0,0,0,0,0,0,0,0,0,0,0,1,0,0,0,0,0,0.2329102,-1.056519,-0.4143066,0,0,0,0,0,0
0.2449999,-0.1453634,-1,0.9939921,0.1925123,0,0,0,0,0,0,0,0,0,0,0,1,0,0,0,0,0,0.3283691,-0.9165039,-0.6015625,0,0,0,0,0,0
0.2499999,-0.05884144,-1,0.9878579,0.2715626,0,0,0,0,0,0,0,0,0,0,0,1,0,0,-0.1494316,-0.01974096,-0.01249428,0.3359375,-0.826416,-0.6016846,0,0,0,0,0,0
0.2549999,-0.01960851,-1,0.9798169,0.2951256,0,0,0,0,0,0,0,0,0,0,0,1,0,0,0,0,0,0.2285156,-0.8432617,-0.5144043,0,0,0,0,0,0
0.2599999,0.01960851,-1,0.9718774,0.3187128,0,0,0,0,0,0,0,0,0,0,0,1,0,0,0,0,0,0.1708984,-0.861084,-0.458252,0,0,0,0,0,0
0.2649999,0.08240198,-1,0.9649065,0.3583938,0,0,0,0,0,0,0,0,0,0,0,1,0,0,0,0,0,0.2982178,-0.8065186,-0.5942383,0,0,0,0,0,0
0.2699999,0.1217254,-1,0.9653503,0.3664391,0,0,0,0,0,0,0,0,0,0,0,1,0,0,0,0,0,0.2072754,-0.770752,-0.6365967,0,0,0,0,0,0
0.2749999,0.1532514,-1,0.9653503,0.3664391,0,0,0,0,0,0,0,0,0,0,0,1,0,0,0,0,0,0.1688232,-0.7689209,-0.6561279,0,0,0,0,0,0
0.2799999,0.2244794,-1,0.9658001,0.3744939,0,0,0,0,0,0,0,0,0,0,0,1,0,0,0,0,0,0.02124023,-0.8033447,-0.6496582,0,0,0,0,0,0
0.2849999,0.2562958,-1,0.9658001,0.3744939,0,0,0,0,0,0,0,0,0,0,0,1,0,0,0,0,0,-0.01867676,-0.8013916,-0.6424561,0,0,0,0,0,0
0.2899999,0.2962267,-1,0.9658001,0.3744939,0,0,0,0,0,0,0,0,0,0,0,1,0,0,0.02723974,-0.04448325,0.05722845,0.0008544922,-0.7493896,-0.7419434,0,0,0,0,0,0
0.2949999,0.2962267,-1,0.9658001,0.3744939,0,0,0,0,0,0,0,0,0,0,0,1,0,0,0,0,0,0.02050781,-0.6911621,-0.7731934,0,0,0,0,0,0
0.2999999,0.2962267,-1,0.9658001,0.3744939,0,0,0,0,0,0,0,0,0,0,0,1,0,0,0,0,0,0.05322266,-0.6506348,-0.7653809,0,0,0,0,0,0
0.3049999,0.3042357,-1,0.9653503,0.3664391,0,0,0,0,0,0,0,0,0,0,0,1,0,0,0.1444338,-0.04647871,0.02323936,0.09240723,-0.7180176,-0.614624,0,0,0,0,0,0
0.3099999,0.2962267,-1,0.9739717,0.3588317,0,0,0,0,0,0,0,0,0,0,0,1,0,0,0,0,0,0.04980469,-0.770874,-0.5341797,0,0,0,0,0,0
0.3149998,0.2962267,-1,0.9821944,0.3431763,0,0,0,0,0,0,0,0,0,0,0,1,0,0,0,0,0,0.04528809,-0.8222656,-0.4699707,0,0,0,0,0,0
0.3199998,0.2962267,-1,1,0.3122526,0,0,0,0,0,0,0,0,0,0,0,1,0,0,0,0,0,0.04516602,-0.9398193,-0.3863525,0,0,0,0,0,0
0.3249998,0.2882255,-1,1,0.2882255,0,0,0,0,0,0,0,0,0,0,0,1,0,0,0,0,0,0.07177734,-0.9533691,-0.3804932,0,0,0,0,0,0
0.3299998,0.2802319,-1,1,0.2006854,0,0,0,0,0,0,0,0,0,0,0,0,0,0,0.1524655,-0.03852003,0.0375974,0.04589844,-0.9428711,-0.3183594,0,0,0,0,0,0
0.3349998,0.2802319,-1,1,0.1532514,0,0,0,0,0,0,0,0,0,0,0,0,0,0,0,0,0,0.0456543,-0.9764404,-0.336792,0,0,0,0,0,0
0.3399998,0.2722459,-1,1,0.1059862,0,0,0,0,0,0,0,0,0,0,0,0,0,0,0,0,0,0.006958008,-1.082031,-0.3399658,0,0,0,0,0,0
0.3449998,0.2722459,-1,1,0.05099206,0,0,0,0,0,0,0,0,0,0,0,0,0,0,0.09410882,-0.0286017,0.049361,0.01708984,-0.9827881,-0.524292,0,0,0,0,0,0
0.3499998,0.2642672,-1,1,-0.08240198,0,0,0,0,0,0,0,0,0,0,0,0,0,0,0,0,0,-0.06201172,-0.9321289,-0.3438721,0,0,0,0,0,0
0.3549998,0.2642672,-1,1,-0.1217254,0,0,0,0,0,0,0,0,0,0,0,0,0,0,0,0,0,-0.07043457,-0.9638672,-0.3304443,0,0,0,0,0,0
0.3599998,0.2562958,-1,1,-0.1690417,0,0,0,0,0,0,0,0,0,0,0,0,0,0,0.03098581,0.008496109,0.01874142,-0.07836914,-0.987793,-0.369873,0,0,0,0,0,0
0.3649998,0.2562958,-1,1,-0.1848525,0,0,0,0,0,0,0,0,0,0,0,0,0,0,0,0,0,-0.1020508,-0.9661865,-0.385498,0,0,0,0,0,0
0.3699998,0.2562958,-1,1,-0.1848525,0,0,0,0,0,0,0,0,0,0,0,0,0,0,0,0,0,-0.1038818,-0.9550781,-0.3618164,0,0,0,0,0,0
0.3749998,0.2483314,-1,1,-0.1927661,0,0,0,0,0,0,0,0,0,0,0,0,0,0,-0.02049228,0.01224539,-0.008996612,0.01184082,-0.9862061,-0.3056641,0,0,0,0,0,0
0.3799998,0.2403741,-1,1,-0.2006854,0,0,0,0,0,0,0,0,0,0,0,0,0,0,0,0,0,0.03210449,-0.9592285,-0.3352051,0,0,0,0,0,0
0.3849998,0.2403741,-1,1,-0.2086106,0,0,0,0,0,0,0,0,0,0,0,0,0,0,0,0,0,-0.001708984,-0.9318848,-0.3438721,0,0,0,0,0,0
0.3899998,0.2324234,-1,1,-0.2165419,0,0,0,0,0,0,0,0,0,0,0,0,0,0,0,0,0,-0.07128906,-0.9951172,-0.366333,0,0,0,0,0,0
0.3949998,0.2244794,-1,1,-0.2244794,0,0,0,0,0,0,0,0,0,0,0,0,0,0,0,0,0,-0.05932617,-1.014404,-0.4053955,0,0,0,0,0,0
0.3999998,0.2165419,-1,1,-0.2244794,0,0,0,0,0,0,0,0,0,0,0,0,0,0,0,0,0,-0.02380371,-1.01709,-0.3891602,0,0,0,0,0,0
0.4049998,0.2006854,-1,1,-0.2244794,0,0,0,0,0,0,0,0,0,0,0,1,0,0,0,0,0,-0.02966309,-0.9833984,-0.3571777,0,0,0,0,0,0
0.4099998,0.1927661,-1,1,-0.2244794,0,0,0,0,0,0,0,0,0,0,0,1,0,0,0,0,0,-0.03820801,-1.026001,-0.3554688,0,0,0,0,0,0
0.4149998,0.1769445,-1,1,-0.2086106,0,0,0,0,0,0,0,0,0,0,0,1,0,0,-0.1574279,0.03898215,-0.04472952,-0.04150391,-0.8782959,-0.2510986,0,0,0,0,0,0
0.4199997,0.1611441,-1,1,-0.1690417,0,0,0,0,0,0,0,0,0,0,0,1,0,0,0,0,0,-0.1120605,-0.8648682,-0.2473145,0,0,0,0,0,0
0.4249997,0.1532514,-1,1,-0.1374799,0,0,0,0,0,0,0,0,0,0,0,1,0,0,0,0,0,-0.08178711,-0.8553467,-0.3873291,0,0,0,0,0,0
0.4299997,0.1296006,-1,1,-0.04314433,0,0,0,0,0,0,0,0,0,0,0,1,0,1,0,0,0,0.06018066,-0.9708252,-0.4862061,0,0,0,0,0,0
0.4349997,0.1217254,-1,1,0.01176485,0,0,0,0,0,0,0,0,0,0,0,1,0,1,0,0,0,0.07312012,-0.9071045,-0.5994873,0,0,0,0,0,0
0.4399997,0.09812176,-1,1,0.1217254,0,0,0,0,0,0,0,0,0,0,0,1,0,1,-0.1171851,0,-0.04152226,0.09191895,-0.831665,-0.6456299,0,0,0,0,0,0
0.4449997,0.09026043,-1,1,0.1611441,0,0,0,0,0,0,0,0,0,0,0,1,0,1,0,0,0,0.09350586,-0.8133545,-0.6501465,0,0,0,0,0,0
0.4499997,0.07454614,-1,1,0.1927661,0,0,0,0,0,0,0,0,0,0,0,1,0,1,0,0,0,0.1103516,-0.8504639,-0.6534424,0,0,0,0,0,0
0.4549997,0.05099206,-1,0.996002,0.2480163,0,0,0,0,0,0,0,0,0,0,0,1,0,1,0,0,0,0.1014404,-0.8662109,-0.6008301,0,0,0,0,0,0
0.4599997,0.035298,-1,0.9882084,0.2795331,0,0,0,0,0,0,0,0,0,0,0,1,0,1,0,0,0,0.09509277,-0.8409424,-0.5595703,0,0,0,0,0,0
0.4649997,0.003921574,-1,0.972283,0.3267186,0,0,0,0,0,0,0,0,0,0,0,1,0,1,-0.04697848,-0.03823249,-0.03198535,0.1239014,-0.8422852,-0.5690918,0,0,0,0,0,0
0.4699997,-0.01176485,-1,0.9731143,0.3427569,0,0,0,0,0,0,0,0,0,0,0,1,0,1,0,0,0,0.137207,-0.8554688,-0.5443115,0,0,0,0,0,0
0.4749997,-0.02745281,-1,0.9649065,0.3583938,0,0,0,0,0,0,0,0,0,0,0,1,0,1,0,0,0,0.133667,-0.8586426,-0.506958,0,0,0,0,0,0
0.4799997,-0.05099206,-1,0.9567504,0.3740382,0,0,0,0,0,0,0,0,0,0,0,1,0,1,0,0,0,0.1630859,-0.8782959,-0.534668,0,0,0,0,0,0
0.4849997,-0.05884144,-1,0.957212,0.382097,0,0,0,0,0,0,0,0,0,0,0,1,0,1,0,0,0,0.1627197,-0.8597412,-0.5460205,0,0,0,0,0,0
0.4899997,-0.06669273,-1,0.957212,0.382097,0,0,0,0,0,0,0,0,0,0,0,1,0,0,0,0,0,0.15979,-0.838501,-0.5556641,0,0,0,0,0,0
0.4949997,-0.08240198,-1,0.9576792,0.3901656,0,0,0,0,0,0,0,0,0,0,0,1,0,0,0,0,0,0.1802979,-0.8148193,-0.6268311,0,0,0,0,0,0
0.4999997,-0.09026043,-1,0.9486455,0.3896925,0,0,0,0,0,0,0,0,0,0,0,1,0,0,0,0,0,0.1674805,-0.7928467,-0.6320801,0,0,0,0,0,0
0.5049997,-0.09812176,-1,0.9472425,0.3655334,0,0,0,0,0,0,0,0,0,0,0,1,0,0,0.07321647,-0.01274416,0.04522929,0.1405029,-0.7485352,-0.5444336,0,0,0,0,0,0
0.5099997,-0.09812176,-1,0.9078456,0.3078103,0,0,0,0,0,0,0,0,0,0,0,1,0,0,0,0,0,0.1135254,-0.7694092,-0.536499,0,0,0,0,0,0
0.5149997,-0.09812176,-1,0.8395998,0.218526,0,0,0,0,0,0,0,0,0,0,0,1,0,0,0,0,0,0.1230469,-0.8183594,-0.5059814,0,0,0,0,0,0
0.5199997,-0.09812176,-1,0.6217576,0.01796987,0,0,0,0,0,0,0,0,0,0,0,1,0,0,0,0,0,0.1352539,-0.9404297,-0.4061279,0,0,0,0,0,0
0.5249997,-0.09812176,-1,0.5133901,-0.08613928,0,0,0,0,0,0,0,0,0,0,0,1,0,0,0,0,0,0.1262207,-0.9342041,-0.4024658,0,0,0,0,0,0
0.5299997,-0.04314433,-1,0.2908759,-0.2716973,0,0,0,0,0,0,0,0,0,0,0,0,0,0,0.07422205,0.04398344,0.1324501,0.04418945,-0.9464111,-0.3972168,0,0,0,0,0,0
0.5349997,-0.01176485,-1,0.2118938,-0.3683691,0,0,0,0,0,0,0,0,0,0,0,0,0,0,0,0,0,-0.006225586,-0.96875,-0.3781738,0,0,0,0,0,0
0.5399997,0.02745281,-1,0.1392321,-0.4720309,0,0,0,0,0,0,0,0,0,0,0,0,0,0,0,0,0,-0.03613281,-1.025635,-0.4431152,0,0,0,0,0,0
0.5449997,0.1217254,-1,-0.03330223,-0.7141477,0,0,0,0,0,0,0,0,0,0,0,0,0,0,-0.06205272,0.09204102,0.1169544,-0.1170654,-0.9432373,-0.333252,0,0,0,0,0,0
0.5499997,0.1611441,-1,-0.1259545,-0.83588,0,0,0,0,0,0,0,0,0,0,0,0,0,0,0,0,0,-0.1000977,-0.9394531,-0.3237305,0,0,0,0,0,0
0.5549996,0.2086106,-1,-0.2223585,-0.9401474,0,0,0,0,0,0,0,0,0,0,0,0,0,0,0,0,0,-0.07556152,-0.9680176,-0.3378906,0,0,0,0,0,0
0.5599996,0.3042357,-1,-0.3686016,-1,0,0,0,0,0,0,0,0,0,0,0,0,0,0,-0.1361876,0.1246929,0.09395697,-0.03662109,-1.087036,-0.2800293,0,0,0,0,0,0
0.5649996,0.3444016,-1,-0.4086611,-1,0,0,0,0,0,0,0,0,0,0,0,0,0,0,0,0,0,-0.07324219,-1.116333,-0.3536377,0,0,0,0,0,0
0.5699996,0.4091095,-1,-0.4565729,-0.9885796,0,0,0,0,0,0,0,0,0,0,0,0,0,0,0,0,0,-0.0567627,-1.079346,-0.4228516,0,0,0,0,0,0
0.5749996,0.5154955,-1,-0.552572,-0.9501057,0,0,0,0,0,0,0,0,0,0,0,0,0,0,-0.1769154,0.08003864,0.08096127,-0.02490234,-0.9846191,-0.5042725,0,0,0,0,0,0
0.5799996,0.5801693,-0.9962907,-0.6000989,-0.9180321,0,0,0,0,0,0,0,0,0,0,0,0,0,0,0,0,0,-0.02856445,-0.9785156,-0.5163574,0,0,0,0,0,0
0.5849996,0.6447625,-0.9651414,-0.6478819,-0.886366,0,0,0,0,0,0,0,0,0,0,0,0,0,0,0,0,0,-0.03137207,-0.9914551,-0.5354004,0,0,0,0,0,0
0.5899996,0.7804915,-0.8525369,-0.7438167,-0.8154141,0,0,0,0,0,0,0,0,0,0,0,1,0,0,0,0,0,-0.004394531,-0.916626,-0.5371094,0,0,0,0,0,0
0.5949996,0.851927,-0.7719339,-0.7755088,-0.7834626,0,0,0,0,0,0,0,0,0,0,0,1,0,0,0,0,0,0.01403809,-0.8074951,-0.5615234,0,0,0,0,0,0
0.5999996,0.9773847,-0.5624949,-0.8389018,-0.711675,0,0,0,0,0,0,0,0,0,0,0,1,0,0,-0.1794178,0.01774187,0.0709675,0.009277344,-0.8131104,-0.5653076,0,0,0,0,0,0
0.6049996,1,-0.4253754,-0.8625466,-0.6797026,0,0,0,0,0,0,0,0,0,0,0,1,0,0,0,0,0,0.02575684,-0.8647461,-0.5432129,0,0,0,0,0,0
0.6099996,1,-0.2882255,-0.8688172,-0.646654,0,0,0,0,0,0,0,0,0,0,0,1,0,0,0,0,0,0.03430176,-0.8282471,-0.581665,0,0,0,0,0,0
0.6149996,1,-0.003921574,-0.8921341,-0.6066512,0,0,0,0,0,0,0,0,0,0,0,1,0,0,-0.0969556,-0.01499313,0.06147185,-0.1298828,-0.7410889,-0.4873047,0,0,0,0,0,0
0.6199996,1,0.1296006,-0.8991652,-0.5822788,0,0,0,0,0,0,0,0,0,0,0,1,0,0,0,0,0,-0.1252441,-0.8033447,-0.5001221,0,0,0,0,0,0
0.6249996,1,0.2483314,-0.9156972,-0.5668602,0,0,0,0,0,0,0,0,0,0,0,1,0,0,0,0,0,-0.1004639,-0.7677002,-0.5322266,0,0,0,0,0,0
0.6299996,1,0.3524597,-0.9400869,-0.5354926,0,0,0,0,0,0,0,0,0,0,0,1,0,0,-0.001845271,-0.03344554,0.00415186,-0.1364746,-0.6595459,-0.7058105,0,0,0,0,0,0
0.6349996,1,0.3766855,-0.9395315,-0.5272477,0,0,0,0,0,0,0,0,0,0,0,1,0,0,0,0,0,-0.1517334,-0.6756592,-0.6975098,0,0,0,0,0,0
0.6399996,1,0.3847782,-0.938428,-0.5107899,0,0,0,0,0,0,0,0,0,0,0,1,0,0,0,0,0,-0.1552734,-0.7164307,-0.6557617,0,0,0,0,0,0
0.6449996,1,0.3928797,-0.9468173,-0.5031205,0,0,0,0,0,0,0,0,0,0,0,1,0,0,0,0,0,-0.04846191,-0.8051758,-0.5784912,0,0,0,0,0,0
0.6499996,1,0.3928797,-0.9468173,-0.5031205,0,0,0,0,0,0,0,0,0,0,0,1,0,0,0,0,0,0.01184082,-0.8353271,-0.5236816,0,0,0,0,0,0
0.6549996,1,0.3928797,-0.9462785,-0.4949155,0,0,0,0,0,0,0,0,0,0,0,1,0,0,0,0,0,0.06921387,-0.8439941,-0.4923096,0,0,0,0,0,0
0.6599995,1,0.3928797,-0.9462785,-0.4949155,0,0,0,0,0,0,0,0,0,0,0,1,0,0,0,0,0,0.0456543,-0.8269043,-0.4772949,0,0,0,0,0,0
0.6649995,1,0.3928797,-0.9468173,-0.5031205,0,0,0,0,0,0,0,0,0,0,0,1,0,0,0,0,0,0.1207275,-0.8236084,-0.494873,0,0,0,0,0,0
0.6699995,1,0.3928797,-0.9479036,-0.5195622,0,0,0,0,0,0,0,0,0,0,0,1,0,0,0,0,0,0.1671143,-0.7097168,-0.5595703,0,0,0,0,0,0
0.6749995,1,0.3847782,-0.8538007,-0.5626429,0,0,0,0,0,0,0,0,0,0,0,1,0,0,0,0,0,0.1496582,-0.7587891,-0.543457,0,0,0,0,0,0
0.6799995,1,0.3686016,-0.7580431,-0.563673,0,0,0,0,0,0,0,0,0,0,0,1,0,0,0,0,0,0.116333,-0.8684082,-0.5576172,0,0,0,0,0,0
0.6849995,1,0.3042357,-0.5726953,-0.5802806,0,0,0,0,0,0,0,0,0,0,0,1,0,0,0.1194453,0.01274416,-0.04997711,0.0246582,-0.9699707,-0.5058594,0,0,0,0,0,0
0.6899995,1,0.2722459,-0.466783,-0.5862795,0,0,0,0,0,0,0,0,0,0,0,1,0,0,0,0,0,-0.005737305,-0.9838867,-0.4663086,0,0,0,0,0,0
0.6949995,1,0.2165419,-0.3721952,-0.5933012,0,0,0,0,0,0,0,0,0,0,0,1,0,0,0,0,0,-0.008422852,-0.9567871,-0.4486084,0,0,0,0,0,0
0.6999995,1,0.08240198,-0.2227476,-0.6317267,0,0,0,0,0,0,0,0,0,0,0,1,0,0,0,0,0,-0.03283691,-0.9244385,-0.444458,0,0,0,0,0,0
0.7049995,1,-0.01176485,-0.1505773,-0.672089,0,0,0,0,0,0,0,0,0,0,0,1,0,0,0,0,0,-0.02075195,-0.9506836,-0.447876,0,0,0,0,0,0
0.7099995,1,-0.2165419,-0.04120127,-0.7603508,0,0,0,0,0,0,0,0,0,0,0,0,0,0,0.0751948,0.05120628,0.04290255,0.01953125,-0.9238281,-0.4256592,0,0,0,0,0,0
0.7149995,1,-0.336352,0.02655276,-0.815549,0,0,0,0,0,0,0,0,0,0,0,0,0,0,0,0,0,0.0255127,-0.8696289,-0.411377,0,0,0,0,0,0
0.7199995,1,-0.4498426,0.0729394,-0.8714339,0,0,0,0,0,0,0,0,0,0,0,0,0,0,0,0,0,0.02624512,-0.8464355,-0.4139404,0,0,0,0,0,0
0.7249995,0.8969611,-0.6737174,0.1838521,-0.9662017,0,0,0,0,0,0,0,0,0,0,0,0,0,0,0,0,0,0.06176758,-0.8370361,-0.4342041,0,0,0,0,0,0
0.7299995,0.826566,-0.7786492,0.2483314,-1,0,0,0,0,0,0,0,0,0,0,0,0,0,0,0,0,0,0.0814209,-0.8168945,-0.3538818,0,0,0,0,0,0
0.7349995,0.6592598,-0.9309547,0.3686016,-1,0,0,0,0,0,0,0,0,0,0,0,0,0,0,0.05247597,0.02823707,0.003998169,0.1027832,-0.8863525,-0.227417,0,0,0,0,0,0
0.7399995,0.5713281,-0.9868394,0.433522,-1,0,0,0,0,0,0,0,0,0,0,0,0,0,0,0,0,0,0.08666992,-0.9356689,-0.2406006,0,0,0,0,0,0
0.7449995,0.4908059,-1,0.4980331,-1,0,0,0,0,0,0,0,0,0,0,0,0,0,0,0,0,0,0.09570313,-0.9854736,-0.2272949,0,0,0,0,0,0
0.7499995,0.3444016,-1,0.6179457,-0.9368855,0,0,0,0,0,0,0,0,0,0,0,0,0,0,-0.05322562,0.01199451,0.005247597,0.1035156,-1.041626,-0.2888184,0,0,0,0,0,0
0.7549995,0.2882255,-1,0.6743174,-0.9057398,0,0,0,0,0,0,0,0,0,0,0,0,0,0,0,0,0,0.08117676,-1.069214,-0.2703857,0,0,0,0,0,0
0.7599995,0.2483314,-1,0.7220283,-0.8656361,0,0,0,0,0,0,0,0,0,0,0,0,0,0,0,0,0,0.04907227,-1.10022,-0.2469482,0,0,0,0,0,0
0.7649994,0.1769445,-1,0.8019298,-0.7939504,0,0,0,0,0,0,0,0,0,0,0,1,0,0,0,0,0,-0.04907227,-1.089722,-0.2747803,0,0,0,0,0,0
0.7699994,0.1453634,-1,0.8339776,-0.7621517,0,0,0,0,0,0,0,0,0,0,0,1,0,0,0,0,0,-0.109375,-1.055664,-0.3178711,0,0,0,0,0,0
0.7749994,0.1059862,-1,0.8550623,-0.6959809,0,0,0,0,0,0,0,0,0,0,0,1,0,0,-0.3221025,0.09970434,0.01824165,-0.04992676,-1.072998,-0.4056396,0,0,0,0,0,0
0.7799994,0.09026043,-1,0.8712887,-0.6803213,0,0,0,0,0,0,0,0,0,0,0,1,0,0,0,0,0,0.02197266,-1.005249,-0.5628662,0,0,0,0,0,0
0.7849994,0.08240198,-1,0.8788145,-0.6640815,0,0,0,0,0,0,0,0,0,0,0,1,0,0,0,0,0,0.04821777,-0.8841553,-0.6282959,0,0,0,0,0,0
0.7899994,0.05884144,-1,0.8857571,-0.6394928,0,0,0,0,0,0,0,0,0,0,0,1,0,0,-0.3256009,0.0189913,-0.03298489,0.1612549,-0.7412109,-0.7255859,0,0,0,0,0,0
0.7949994,0.05099206,-1,0.893341,-0.6233535,0,0,0,0,0,0,0,0,0,0,0,1,0,0,0,0,0,0.06115723,-0.6607666,-0.6896973,0,0,0,0,0,0
0.7999994,0.035298,-1,0.9015527,-0.6155977,0,0,0,0,0,0,0,0,0,0,0,1,0,0,0,0,0,0.01403809,-0.6860352,-0.7753906,0,0,0,0,0,0
0.8049994,0,-1,0.899761,-0.590592,0,0,0,0,0,0,0,0,0,0,0,1,0,0,-0.1757621,-0.05166759,-0.06366186,-0.02038574,-0.7139893,-0.7218018,0,0,0,0,0,0
0.8099994,-0.01960851,-1,0.9074212,-0.574568,0,0,0,0,0,0,0,0,0,0,0,1,0,0,0,0,0,-0.02697754,-0.7196045,-0.7480469,0,0,0,0,0,0
0.8149994,-0.035298,-1,0.9068332,-0.5662758,0,0,0,0,0,0,0,0,0,0,0,1,0,0,0,0,0,0.004760742,-0.6962891,-0.7548828,0,0,0,0,0,0
0.8199994,-0.07454614,-1,0.9222788,-0.5343676,0,0,0,0,0,0,0,0,0,0,0,1,0,0,-0.08496109,-0.06372081,-0.06347093,0.03930664,-0.6712646,-0.6994629,0,0,0,0,0,0
0.8249994,-0.09026043,-1,0.9205832,-0.5096791,0,0,0,0,0,0,0,0,0,0,0,1,0,0,0,0,0,0.03552246,-0.6964111,-0.6883545,0,0,0,0,0,0
0.8299994,-0.09812176,-1,0.9289486,-0.5020276,0,0,0,0,0,0,0,0,0,0,0,1,0,0,0,0,0,0.03234863,-0.715332,-0.670166,0,0,0,0,0,0
0.8349994,-0.1059862,-1,0.9357188,-0.4698335,0,0,0,0,0,0,0,0,0,0,0,1,0,0,0,0,0,0.1223145,-0.6785889,-0.7130127,0,0,0,0,0,0
0.8399994,-0.1059862,-1,0.9431154,-0.4459081,0,0,0,0,0,0,0,0,0,0,0,1,0,0,0,0,0,0.09741211,-0.6750488,-0.7271729,0,0,0,0,0,0
0.8449994,-0.113854,-1,0.9581519,-0.3982442,0,0,0,0,0,0,0,0,0,0,0,1,0,0,0.08770983,-0.05597436,-0.01924119,0.06835938,-0.6628418,-0.7156982,0,0,0,0,0,0
0.8499994,-0.113854,-1,0.9558448,-0.3579501,0,0,0,0,0,0,0,0,0,0,0,1,0,0,0,0,0,0.06347656,-0.6599121,-0.6937256,0,0,0,0,0,0
0.8549994,-0.1059862,-1,0.9714789,-0.310716,0,0,0,0,0,0,0,0,0,0,0,1,0,0,0,0,0,0.04626465,-0.6745605,-0.6783447,0,0,0,0,0,0
0.8599994,-0.09026043,-1,0.9853528,-0.2080626,0,0,0,0,0,0,0,0,0,0,0,1,0,0,0.1913967,-0.05197196,-0.01898975,0.06835938,-0.6890869,-0.6934814,0,0,0,0,0,0
0.8649994,-0.07454614,-1,0.9924375,-0.1372937,0,0,0,0,0,0,0,0,0,0,0,1,0,0,0,0,0,0.05322266,-0.7165527,-0.6672363,0,0,0,0,0,0
0.8699993,-0.05099206,-1,0.9910053,-0.05092122,0,0,0,0,0,0,0,0,0,0,0,1,0,0,0.2115142,-0.03944267,-0.01614612,0.05480957,-0.7547607,-0.6542969,0,0,0,0,0,0
0.8749993,0.04314433,-1,1,0.2882255,0,0,0,0,0,0,0,0,0,0,0,1,0,0,0.2668959,-0.02260657,-0.01545551,-0.0291748,-0.7333984,-0.6959229,0,0,0,0,0,0
0.8799993,0.08240198,-1,1,0.3928797,0,0,0,0,0,0,0,0,0,0,0,1,0,0,0,0,0,-0.03796387,-0.7871094,-0.6947021,0,0,0,0,0,0
0.8849993,0.1296006,-1,0.9821059,0.4970172,0,0,0,0,0,0,0,0,0,0,0,1,0,0,0,0,0,-0.01208496,-0.9119873,-0.6795654,0,0,0,0,0,0
0.8899993,0.2483314,-1,0.8619251,0.6712689,0,0,0,0,0,0,0,0,0,0,0,1,0,0,0,0,0,-0.01159668,-1.019775,-0.612793,0,0,0,0,0,0
0.8949993,0.3122526,-1,0.7808915,0.7412524,0,0,0,0,0,0,0,0,0,0,0,1,0,0,0,0,0,0.05822754,-1.042847,-0.6077881,0,0,0,0,0,0
0.8999993,0.3928797,-1,0.6980022,0.7689855,0,0,0,0,0,0,0,0,0,0,0,1,0,0,0,0,0,0.05371094,-1.017944,-0.6318359,0,0,0,0,0,0
0.9049993,0.5568311,-1,0.5100134,0.805899,0,0,0,0,0,0,0,0,0,0,0,0,0,0,0,0,0,0.00769043,-1.107056,-0.635376,0,0,0,0,0,0
0.9099993,0.6531526,-0.965704,0.4138424,0.8160818,0,0,0,0,0,0,0,0,0,0,0,0,0,0,0,0,0,-0.0111084,-1.151001,-0.5911865,0,0,0,0,0,0
0.9149993,0.8031714,-0.8111632,0.1966108,0.8751109,0,0,0,0,0,0,0,0,0,0,0,0,0,0,0.1424464,0.005747836,-0.1167061,-0.03308105,-1.354858,-0.5395508,0,0,0,0,0,0
0.9199993,0.8743551,-0.7226405,0.08906728,0.9177802,0,0,0,0,0,0,0,0,0,0,0,0,0,0,0,0,0,-0.07727051,-1.322632,-0.4715576,0,0,0,0,0,0
0.9249993,0.9274606,-0.6090192,-0.04308432,0.9909394,0,0,0,0,0,0,0,0,0,0,0,0,0,0,0,0,0,-0.08532715,-1.307129,-0.4127197,0,0,0,0,0,0
0.9299993,1,-0.3766855,-0.2802319,1,0,0,0,0,0,0,0,0,0,0,0,0,0,0,0,0,0,-0.01074219,-1.02124,-0.6477051,0,0,0,0,0,0
0.9349993,1,-0.2562958,-0.3928797,1,0,0,0,0,0,0,0,0,0,0,0,0,0,0,0,0,0,0.0291748,-1.087402,-0.675415,0,0,0,0,0,0
0.9399993,1,-0.1690417,-0.4821076,1,0,0,0,0,0,0,0,0,0,0,0,0,0,0,0,0,0,0.09558105,-1.175903,-0.7073975,0,0,0,0,0,0
0.9449993,1,0,-0.5940678,0.9529006,0,0,0,0,0,0,0,0,0,0,0,0,0,0,0,0,0,0.1422119,-1.281128,-0.7960205,0,0,0,0,0,0
0.9499993,1,0.07454614,-0.6173669,0.9280418,0,0,0,0,0,0,0,0,0,0,0,0,0,0,0,0,0,0.1463623,-1.247803,-0.7984619,0,0,0,0,0,0
0.9549993,1,0.2006854,-0.6502753,0.9215559,0,0,0,0,0,0,0,0,0,0,0,1,0,0,0.0509808,0.0507309,-0.08021979,0.1347656,-1.235107,-0.6520996,0,0,0,0,0,0
0.9599993,1,0.2483314,-0.6580837,0.9133403,0,0,0,0,0,0,0,0,0,0,0,1,0,0,0,0,0,0.1403809,-1.258789,-0.5715332,0,0,0,0,0,0
0.9649993,1,0.2962267,-0.6580837,0.9133403,0,0,0,0,0,0,0,0,0,0,0,1,0,0,0,0,0,0.145752,-1.137817,-0.4932861,0,0,0,0,0,0
0.9699993,1,0.3847782,-0.6664929,0.9139333,0,0,0,0,0,0,0,0,0,0,0,1,0,0,-0.01914469,0.0948008,-0.02675643,-0.001098633,-0.8665771,-0.3964844,0,0,0,0,0,0
0.9749992,1,0.4253754,-0.6664929,0.9139333,0,0,0,0,0,0,0,0,0,0,0,1,0,0,0,0,0,0.04394531,-0.9880371,-0.3959961,0,0,0,0,0,0
0.9799992,1,0.4743927,-0.6664929,0.9139333,0,0,0,0,0,0,0,0,0,0,0,1,0,0,0,0,0,0.1719971,-0.9718018,-0.5184326,0,0,0,0,0,0
0.9849992,1,0.4908059,-0.6664929,0.9139333,0,0,0,0,0,0,0,0,0,0,0,1,0,0,0,0,0,0.1679688,-0.9302979,-0.592041,0,0,0,0,0,0
0.9899992,1,0.4908059,-0.6664929,0.9139333,0,0,0,0,0,0,0,0,0,0,0,1,0,0,0,0,0,0.1464844,-0.9112549,-0.5622559,0,0,0,0,0,0
0.9949992,1,0.4990265,-0.6664929,0.9139333,0,0,0,0,0,0,0,0,0,0,0,1,0,0,0,0,0,0.1427002,-0.9105225,-0.4293213,0,0,0,0,0,0
0.9999992,1,0.4990265,-0.6664929,0.9139333,0,0,0,0,0,0,0,0,0,0,0,1,0,0,0,0,0,0.1691895,-0.8942871,-0.4196777,0,0,0,0,0,0
1.004999,1,0.4990265,-0.6658976,0.9051422,0,0,0,0,0,0,0,0,0,0,0,1,0,0,0.003748589,0.01349492,0.04898156,0.2091064,-0.9477539,-0.3708496,0,0,0,0,0,0
1.009999,1,0.4990265,-0.6658976,0.9051422,0,0,0,0,0,0,0,0,0,0,0,1,0,0,0,0,0,0.2080078,-0.9976807,-0.3242188,0,0,0,0,0,0
1.014999,1,0.4990265,-0.6658976,0.9051422,0,0,0,0,0,0,0,0,0,0,0,1,0,0,0,0,0,0.2154541,-1.082275,-0.3740234,0,0,0,0,0,0
1.019999,1,0.5072563,-0.6658976,0.9051422,0,0,0,0,0,0,0,0,0,0,0,1,0,0,-0.02721775,0.01107163,0.07750139,0.1832275,-1.119263,-0.4387207,0,0,0,0,0,0
1.024999,1,0.5072563,-0.6652973,0.8963585,0,0,0,0,0,0,0,0,0,0,0,1,0,0,0,0,0,0.1885986,-1.140015,-0.4663086,0,0,0,0,0,0
1.029999,1,0.5072563,-0.6652973,0.8963585,0,0,0,0,0,0,0,0,0,0,0,1,0,0,0,0,0,0.1673584,-1.170776,-0.458252,0,0,0,0,0,0
1.034999,1,0.5072563,-0.680935,0.8800389,0,0,0,0,0,0,0,0,0,0,0,1,0,0,0,0,0,0.123291,-1.197998,-0.3144531,0,0,0,0,0,0
1.039999,1,0.5072563,-0.696602,0.8637865,0,0,0,0,0,0,0,0,0,0,0,1,0,0,0,0,0,0.09155273,-1.138062,-0.2945557,0,0,0,0,0,0
1.044999,1,0.5072563,-0.712302,0.8475996,0,0,0,0,0,0,0,0,0,0,0,1,0,0,0,0,0,0.08972168,-1.1427,-0.2669678,0,0,0,0,0,0
1.049999,1,0.5072563,-0.751722,0.8074051,0,0,0,0,0,0,0,0,0,0,0,1,0,0,0,0,0,0.1060791,-1.008057,-0.1630859,0,0,0,0,0,0
1.054999,1,0.4990265,-0.7577157,0.7735841,0,0,0,0,0,0,0,0,0,0,0,1,0,0,0,0,0,0.1119385,-0.9814453,-0.2156982,0,0,0,0,0,0
1.059999,1,0.4990265,-0.7596959,0.6888435,0,0,0,0,0,0,0,0,0,0,0,1,0,0,-0.09249422,-0.03667476,0.206209,0.09472656,-1.057007,-0.2460938,0,0,0,0,0,0
1.064999,1,0.4990265,-0.7562932,0.6465719,0,0,0,0,0,0,0,0,0,0,0,1,0,0,0,0,0,0.07983398,-1.065796,-0.2391357,0,0,0,0,0,0
1.069999,1,0.4990265,-0.7615088,0.6053018,0,0,0,0,0,0,0,0,0,0,0,1,0,0,0,0,0,0.04626465,-1.018433,-0.2199707,0,0,0,0,0,0
1.074999,1,0.4990265,-0.7646902,0.539553,0,0,0,0,0,0,0,0,0,0,0,0,0,0,-0.1586773,-0.01474325,0.1634251,0.0279541,-0.9342041,-0.2141113,0,0,0,0,0,0
1.079999,1,0.4990265,-0.7720711,0.5237668,0,0,0,0,0,0,0,0,0,0,0,0,0,0,0,0,0,-0.004638672,-0.855835,-0.2459717,0,0,0,0,0,0
1.084999,1,0.4990265,-0.7794927,0.5080276,0,0,0,0,0,0,0,0,0,0,0,0,0,0,0,0,0,-0.02966309,-0.9193115,-0.2998047,0,0,0,0,0,0
1.089999,1,0.5072563,-0.7869575,0.492333,0,0,0,0,0,0,0,0,0,0,0,0,0,0,0,0,0,-0.0480957,-0.4593506,-0.3347168,0,0,0,0,0,0
1.094999,1,0.523744,-0.7957745,0.492992,0,0,0,0,0,0,0,0,0,0,0,0,0,0,0,0,0,-0.06494141,-0.369751,-0.4169922,0,0,0,0,0,0
1.099999,0.9879154,0.5879496,-0.7957745,0.492992,0,0,0,0,0,0,0,0,0,0,0,0,0,0,-0.1854151,0.03548375,0.06746911,-0.07556152,-0.3656006,-0.506958,0,0,0,0,0,0
1.104999,0.9723267,0.6202084,-0.8046001,0.4936435,0,0,0,0,0,0,0,0,0,0,0,0,0,0,0,0,0,-0.07861328,-0.3658447,-0.5321045,0,0,0,0,0,0
1.109999,0.9562932,0.6441975,-0.813434,0.4942876,0,0,0,0,0,0,0,0,0,0,0,0,0,0,0,0,0,-0.0880127,-0.3309326,-0.5332031,0,0,0,0,0,0
1.114999,0.9321206,0.6760875,-0.8336449,0.5283665,0,0,0,0,0,0,0,0,0,0,0,0,0,0,-0.1314756,-0.01314756,0.06366186,-0.05322266,-0.2504883,-0.4876709,0,0,0,0,0,0
1.119999,0.9332856,0.6929545,-0.8456193,0.5703015,0,0,0,0,0,0,0,0,0,0,0,0,0,0,0,0,0,-0.02160645,-0.3151855,-0.440918,0,0,0,0,0,0
1.124999,0.9250807,0.7008187,-0.8487775,0.6119093,0,0,0,0,0,0,0,0,0,0,0,0,0,0,0,0,0,-0.02050781,-0.3765869,-0.3824463,0,0,0,0,0,0
1.129999,0.9168916,0.7086892,-0.8644044,0.7050672,0,0,0,0,0,0,0,0,0,0,0,0,0,0,-0.1531798,-0.06621967,0.06771899,-0.006835938,-0.09533691,-0.6878662,0,0,0,0,0,0
1.134999,0.9081243,0.7080969,-0.8575435,0.7299091,0,0,0,0,0,0,0,0,0,0,0,0,0,0,0,0,0,0.03857422,-0.0612793,-0.7075195,0,0,0,0,0,0
1.139999,0.9087183,0.7165664,-0.7933249,0.7933249,0,0,0,0,0,0,0,0,0,0,0,1,0,0,-0.07871395,-0.1324393,0.05747368,0.08410645,-0.5101318,-0.5180664,0,0,0,0,0,0
1.144999,0.9087183,0.7165664,-0.7615291,0.8253221,0,0,0,0,0,0,0,0,0,0,0,1,0,0,0,0,0,0.09436035,-0.4101563,-0.4761963,0,0,0,0,0,0
1.149999,0.9005606,0.7244509,-0.7463182,0.8500843,0,0,0,0,0,0,0,0,0,0,0,1,0,0,0,0,0,-0.0670166,0.05249023,-0.3016357,0,0,0,0,0,0
1.154999,0.8842907,0.7402433,-0.7056823,0.8731322,0,0,0,0,0,0,0,0,0,0,0,1,0,0,-0.002306589,-0.1042578,-0.03875069,-0.06848145,-0.07299805,-0.5466309,0,0,0,0,0,0
1.159999,0.8848926,0.7487553,-0.6893774,0.8806496,0,0,0,0,0,0,0,0,0,0,0,1,0,0,0,0,0,0.09179688,-0.08520508,-0.5528564,0,0,0,0,0,0
1.164999,0.8761782,0.7481521,-0.682148,0.8975631,0,0,0,0,0,0,0,0,0,0,0,1,0,0,0,0,0,0.1571045,-0.008666992,-0.6325684,0,0,0,0,0,0
1.169999,0.8761782,0.7481521,-0.6658976,0.9051422,0,0,0,0,0,0,0,0,0,0,0,1,0,0,0.2169007,-0.1854151,-0.08071303,0.07458496,-0.2614746,-0.5300293,0,0,0,0,0,0
1.174999,0.8761782,0.7481521,-0.6580837,0.9133403,0,0,0,0,0,0,0,0,0,0,0,1,0,0,0,0,0,0.02844238,-0.3312988,-0.4423828,0,0,0,0,0,0
1.179999,0.8761782,0.7481521,-0.6502753,0.9215559,0,0,0,0,0,0,0,0,0,0,0,1,0,0,0,0,0,0.01293945,-0.4134521,-0.4251709,0,0,0,0,0,0
1.184999,0.8761782,0.7481521,-0.625725,0.9286237,0,0,0,0,0,0,0,0,0,0,0,1,0,0,0,0,0,0.0291748,-0.4986572,-0.388916,0,0,0,0,0,0
1.189999,0.8761782,0.7481521,-0.6173669,0.9280418,0,0,0,0,0,0,0,0,0,0,0,1,0,0,0,0,0,0.05761719,-0.5554199,-0.3624268,0,0,0,0,0,0
1.194999,0.8761782,0.7481521,-0.6090192,0.9274606,0,0,0,0,0,0,0,0,0,0,0,1,0,0,0,0,0,0.05712891,-0.6263428,-0.3360596,0,0,0,0,0,0
1.199999,0.8761782,0.7481521,-0.6095974,0.9363098,0,0,0,0,0,0,0,0,0,0,0,1,0,0,0,0,0,0.04418945,-0.7585449,-0.2849121,0,0,0,0,0,0
1.204999,0.8761782,0.7481521,-0.6095974,0.9363098,0,0,0,0,0,0,0,0,0,0,0,1,0,0,0,0,0,0.06555176,-0.7871094,-0.2006836,0,0,0,0,0,0
1.209999,0.8761782,0.7481521,-0.6012593,0.9357346,0,0,0,0,0,0,0,0,0,0,0,1,0,0,0.5045189,-0.041481,0.0362334,0.1063232,-0.8521729,-0.2059326,0,0,0,0,0,0
1.214999,0.8761782,0.7481521,-0.6012593,0.9357346,0,0,0,0,0,0,0,0,0,0,0,1,0,0,0,0,0,0.1917725,-0.8664551,-0.2880859,0,0,0,0,0,0
1.219999,0.8761782,0.7481521,-0.6012593,0.9357346,0,0,0,0,0,0,0,0,0,0,0,1,0,0,0,0,0,0.1745605,-0.8988037,-0.3341064,0,0,0,0,0,0
1.224999,0.8761782,0.7481521,-0.6090192,0.9274606,0,0,0,0,0,0,0,0,0,0,0,1,0,0,0.5797817,-0.02074219,0.09846293,-0.005004883,-1.000366,-0.1646729,0,0,0,0,0,0
1.229999,0.8761782,0.7481521,-0.6090192,0.9274606,0,0,0,0,0,0,0,0,0,0,0,1,0,0,0,0,0,-0.03527832,-0.9782715,-0.0958252,0,0,0,0,0,0
1.234999,0.8761782,0.7481521,-0.6329178,0.9115608,0,0,0,0,0,0,0,0,0,0,0,1,0,0,0,0,0,-0.0324707,-0.9952393,-0.0904541,0,0,0,0,0,0
1.239999,0.8761782,0.7481521,-0.6674467,0.8096247,0,0,0,0,0,0,0,0,0,0,0,1,0,0,0,0,0,0.1125488,-1.044922,-0.2178955,0,0,0,0,0,0
1.244999,0.8674718,0.7475448,-0.6705309,0.7411131,0,0,0,0,0,0,0,0,0,0,0,1,0,0,0,0,0,0.1740723,-1.0625,-0.2711182,0,0,0,0,0,0
1.249999,0.8599966,0.763997,-0.6644413,0.5722645,0,0,0,0,0,0,0,0,0,0,0,0,0,0,0.556629,0.07081853,0.09065694,0.1418457,-1.116699,-0.2478027,0,0,0,0,0,0
1.254999,0.8438712,0.7798811,-0.6582497,0.5060532,0,0,0,0,0,0,0,0,0,0,0,0,0,0,0,0,0,0.08227539,-1.180664,-0.2475586,0,0,0,0,0,0
1.259999,0.8277996,0.7958074,-0.6519754,0.4409313,0,0,0,0,0,0,0,0,0,0,0,0,0,0,0,0,0,0.06738281,-1.359009,-0.2896729,0,0,0,0,0,0
1.264999,0.7798811,0.8438712,-0.6116935,0.2966897,0,0,0,0,0,0,0,0,0,0,0,0,0,0,0.4662865,0.05347551,0.05422517,0.04980469,-1.173828,-0.3144531,0,0,0,0,0,0
1.269999,0.7566752,0.8767824,-0.4966151,0.2048971,0,0,0,0,0,0,0,0,0,0,0,0,0,0,0,0,0,0.08166504,-1.184448,-0.421875,0,0,0,0,0,0
1.274999,0.7323431,0.892418,-0.3750843,0.1442632,0,0,0,0,0,0,0,0,0,0,0,0,0,0,0,0,0,0.06176758,-1.21875,-0.3155518,0,0,0,0,0,0
1.279999,0.6766679,0.9409287,-0.05572049,0.02489639,0,0,0,0,0,0,0,0,0,0,0,0,0,0,0,0,0,0.02893066,-1.351685,-0.2213135,0,0,0,0,0,0
1.284999,0.6531526,0.965704,0,0,0,0,0,0,0,0,0,0,0,0,0,0,0,0,0,0,0,-0.02587891,-1.430908,-0.0592041,0,0,0,0,0,0
1.289999,0.6291237,0.9817535,0,0,0,0,0,0,0,0,0,0,0,0,0,0,0,0,0,0,0,-0.06787109,-1.467163,0.008666992,0,0,0,0,0,0
1.294999,0.5968135,0.9973595,0,0,0,0,0,0,0,0,0,0,0,0,0,0,0,0,0,0,0,-0.1263428,-1.360229,-0.133667,0,0,0,0,0,0
1.299999,0.5729127,1,0,0,0,0,0,0,0,0,0,0,0,0,0,0,0,0,0,0,0,-0.06054688,-1.352173,-0.2163086,0,0,0,0,0,0
1.304999,0.540269,1,0,0,0,0,0,0,0,0,0,0,0,0,0,1,0,0,-0.1106993,-0.03698306,-0.02723753,0.0793457,-1.380249,-0.2763672,0,0,0,0,0,0
1.309999,0.523744,1,0,0,0,0,0,0,0,0,0,0,0,0,0,1,0,0,0,0,0,0.05993652,-1.259399,-0.3164063,0,0,0,0,0,0
1.314999,0.5072563,1,0,0,0,0,0,0,0,0,0,0,0,0,0,1,0,0,0,0,0,0.02050781,-1.23291,-0.3283691,0,0,0,0,0,0
1.319999,0.4498426,1,-0.003940752,0.02420748,0,0,0,0,0,0,0,0,0,0,0,1,0,0,-0.2644004,-0.108959,-0.1257027,0.03173828,-1.189819,-0.40979,0,0,0,0,0,0
1.324999,0.4091095,1,-0.0115039,0.09696148,0,0,0,0,0,0,0,0,0,0,0,1,0,0,0,0,0,-0.02587891,-1.155518,-0.432251,0,0,0,0,0,0
1.329999,0.3524597,1,-0.007144243,0.1881317,0,0,0,0,0,0,0,0,0,0,0,1,0,0,0,0,0,-0.08703613,-1.054077,-0.3223877,0,0,0,0,0,0
1.334999,0.2324234,1,0.00310537,0.3633282,0,0,0,0,0,0,0,0,0,0,0,1,0,0,-0.2826205,-0.1269419,-0.222648,-0.05786133,-1.096802,-0.4171143,0,0,0,0,0,0
1.339999,0.1453634,1,0.003286801,0.4371446,0,0,0,0,0,0,0,0,0,0,0,1,0,0,0,0,0,0.02624512,-1.097656,-0.5162354,0,0,0,0,0,0
1.344999,0.06669273,1,0.01730411,0.5295059,0,0,0,0,0,0,0,0,0,0,0,1,0,0,0,0,0,0.09228516,-1.038818,-0.6181641,0,0,0,0,0,0
1.349999,-0.09798697,0.9916281,0.03266086,0.6495883,0,0,0,0,0,0,0,0,0,0,0,1,0,0,-0.1456951,-0.1574407,-0.2126699,0.1334229,-1.046753,-0.7283936,0,0,0,0,0,0
1.354999,-0.1660905,0.8922536,0.03303907,0.6864786,0,0,0,0,0,0,0,0,0,0,0,1,0,0,0,0,0,0.1115723,-1.076172,-0.680542,0,0,0,0,0,0
1.359999,-0.2233951,0.7762033,0.04049629,0.6957999,0,0,0,0,0,0,0,0,0,0,0,1,0,0,0,0,0,0.08886719,-1.121582,-0.6065674,0,0,0,0,0,0
1.364999,-0.329629,0.5542113,0.040387,0.686579,0,0,0,0,0,0,0,0,0,0,0,1,0,0,0,0,0,0.08789063,-1.211426,-0.5444336,0,0,0,0,0,0
1.369999,-0.36298,0.4405097,0.04705063,0.6406125,0,0,0,0,0,0,0,0,0,0,0,1,0,0,0,0,0,0.1054688,-1.208496,-0.5057373,0,0,0,0,0,0
1.374999,-0.3974731,0.2371478,0.051528,0.5118448,0,0,0,0,0,0,0,0,0,0,0,1,0,0,0.1005673,-0.1206346,-0.02767907,0.105835,-1.181763,-0.3812256,0,0,0,0,0,0
1.379999,-0.4293474,0.1564289,0.04255018,0.4287749,0,0,0,0,0,0,0,0,0,0,0,1,0,0,0,0,0,0.09960938,-1.160522,-0.282959,0,0,0,0,0,0
1.384999,-0.4580295,0.07689547,0.03303075,0.3273047,0,0,0,0,0,0,0,0,0,0,0,1,0,0,0,0,0,0.09313965,-1.161499,-0.2033691,0,0,0,0,0,0
1.389999,-0.5580935,-0.05967038,0.004879327,0.09596009,0,0,0,0,0,0,0,0,0,0,0,1,0,0,0.1249529,-0.0719729,0.06422582,0.06848145,-1.125122,-0.2001953,0,0,0,0,0,0
1.394999,-0.6255866,-0.133796,0,0,0,0,0,0,0,0,0,0,0,0,0,1,0,0,0.1199451,-0.05647413,0.08421143,0.07189941,-1.109619,-0.2359619,0,0,0,0,0,0
1.399999,-0.9169266,-0.3082434,0,0,0,0,0,0,0,0,0,0,0,0,0,0,0,0,0.06796888,-0.02149016,0.09720548,0.01403809,-1.017944,-0.229126,0,0,0,0,0,0
1.404999,-1,-0.3681803,0,0,0,0,0,0,0,0,0,0,0,0,0,0,0,0,0.02299134,-0.02274144,0.09871283,0.1312256,-1.096924,-0.2347412,0,0,0,0,0,0
1.409999,-1,-0.3847782,0,0,0,0,0,0,0,0,0,0,0,0,0,0,0,0,-0.005305154,-0.02421918,0.100106,0.07678223,-1.036255,-0.2475586,0,0,0,0,0,0
1.414999,-1,-0.4412105,0,0,0,0,0,0,0,0,0,0,0,0,0,0,0,0,0,0,0,-0.01696777,-0.9558105,-0.2077637,0,0,0,0,0,0
1.419999,-1,-0.4493711,0,0,0,0,0,0,0,0,0,0,0,0,0,0,0,0,0,0,0,-0.04443359,-0.9779053,-0.1699219,0,0,0,0,0,0
1.424999,-1,-0.4575411,0,0,0,0,0,0,0,0,0,0,0,0,0,0,0,0,-0.08719675,0.03206441,0.07081853,-0.06079102,-0.909668,-0.2452393,0,0,0,0,0,0
1.429999,-1,-0.4575411,0,0,0,0,0,0,0,0,0,0,0,0,0,0,0,0,0,0,0,-0.06738281,-0.895752,-0.2796631,0,0,0,0,0,0
1.434999,-1,-0.4575411,0,0,0,0,0,0,0,0,0,0,0,0,0,0,0,0,0,0,0,-0.08154297,-0.9067383,-0.3179932,0,0,0,0,0,0
1.439999,-1,-0.4575411,0,0,0,0,0,0,0,0,0,0,0,0,0,0,0,0,-0.06771899,0.0432302,0.082962,-0.1236572,-0.9191895,-0.2564697,0,0,0,0,0,0
1.444999,-1,-0.4575411,0,0,0,0,0,0,0,0,0,0,0,0,0,0,0,0,0,0,0,-0.1350098,-0.9160156,-0.2189941,0,0,0,0,0,0
1.449999,-1,-0.4575411,0,0,0,0,0,0,0,0,0,0,0,0,0,0,0,0,0,0,0,-0.1341553,-0.9187012,-0.2319336,0,0,0,0,0,0
1.454999,-1,-0.4575411,0,0,0,0,0,0,0,0,0,0,0,0,0,0,0,0,0,0,0,-0.1588135,-0.8791504,-0.2581787,0,0,0,0,0,0
1.459999,-1,-0.4575411,0,0,0,0,0,0,0,0,0,0,0,0,0,0,0,0,0,0,0,-0.1501465,-0.9014893,-0.2711182,0,0,0,0,0,0
1.464999,-1,-0.4575411,0,0,0,0,0,0,0,0,0,0,0,0,0,0,0,0,-0.03998169,0.02373913,0.1104494,-0.08251953,-0.9512939,-0.3000488,0,0,0,0,0,0
1.469999,-1,-0.4575411,0,0,0,0,0,0,0,0,0,0,0,0,0,0,0,0,0,0,0,-0.09545898,-0.9432373,-0.2875977,0,0,0,0,0,0
1.474999,-1,-0.4575411,0,0,0,0,0,0,0,0,0,0,0,0,0,0,0,0,0,0,0,-0.125,-0.8989258,-0.2947998,0,0,0,0,0,0
1.479999,-1,-0.4575411,0,0,0,0,0,0,0,0,0,0,0,0,0,0,0,0,-0.0397318,0.01074508,0.111449,-0.1427002,-0.8969727,-0.3746338,0,0,0,0,0,0
1.484999,-1,-0.4575411,0,0,0,0,0,0,0,0,0,0,0,0,0,0,0,0,0,0,0,-0.1486816,-0.8962402,-0.4042969,0,0,0,0,0,0
1.489999,-1,-0.4575411,0,0,0,0,0,0,0,0,0,0,0,0,0,0,0,0,0,0,0,-0.1400146,-0.9180908,-0.3963623,0,0,0,0,0,0
1.494999,-1,-0.4493711,0,0,0,0,0,0,0,0,0,0,0,0,0,0,0,0,0,0,0,-0.1496582,-0.765625,-0.4664307,0,0,0,0,0,0
1.499999,-1,-0.4412105,0,0,0,0,0,0,0,0,0,0,0,0,0,0,0,0,0,0,0,-0.1680908,-0.7692871,-0.4240723,0,0,0,0,0,0
1.504999,-1,-0.4412105,0,0,0,0,0,0,0,0,0,0,0,0,0,0,0,0,0,0,0,-0.1724854,-0.7996826,-0.3579102,0,0,0,0,0,0
1.509999,-1,-0.4330592,0,0,0,0,0,0,0,0,0,0,0,0,0,0,0,0,0,0,0,-0.2037354,-0.7652588,-0.30896,0,0,0,0,0,0
1.514999,-1,-0.433522,0,0,0,0,0,0,0,0,0,0,0,0,0,0,0,0,0,0,0,-0.2158203,-0.6381836,-0.286499,0,0,0,0,0,0
1.519999,-1,-0.433522,0,0,0,0,0,0,0,0,0,0,0,0,0,0,0,0,0,0,0,-0.1828613,-0.5740967,-0.2971191,0,0,0,0,0,0
1.524999,-1,-0.4330592,0,0,0,0,0,0,0,0,0,0,0,0,0,1,0,0,0,0,0,-0.09606934,-0.6816406,-0.3208008,0,0,0,0,0,0
1.529999,-1,-0.4330592,0,0,0,0,0,0,0,0,0,0,0,0,0,1,0,0,0,0,0,-0.1008301,-0.734375,-0.3154297,0,0,0,0,0,0
1.534999,-1,-0.4330592,-0.03587899,0.09738582,0,0,0,0,0,0,0,0,0,0,0,1,0,0,-0.1144476,-0.0207405,-0.13094,-0.09509277,-0.7399902,-0.3983154,0,0,0,0,0,0
1.539999,-1,-0.4330592,-0.07976729,0.1526974,0,0,0,0,0,0,0,0,0,0,0,1,0,0,0,0,0,-0.08325195,-0.7131348,-0.432251,0,0,0,0,0,0
1.544999,-1,-0.4575411,-0.1426783,0.2019032,0,0,0,0,0,0,0,0,0,0,0,1,0,0,0,0,0,-0.06005859,-0.6846924,-0.4396973,0,0,0,0,0,0
1.549999,-1,-0.5144897,-0.3421223,0.2508897,0,0,0,0,0,0,0,0,0,0,0,1,0,0,-0.05028807,-0.01591687,-0.1499415,-0.02331543,-0.7279053,-0.3967285,0,0,0,0,0,0
1.554999,-0.9936524,-0.5387272,-0.4782272,0.2687846,0,0,0,0,0,0,0,0,0,0,0,1,0,0,0,0,0,-0.01159668,-0.770874,-0.392334,0,0,0,0,0,0
1.559999,-0.9868394,-0.5713281,-0.6239719,0.2371823,0,0,0,0,0,0,0,0,0,0,0,1,0,0,0,0,0,-0.003540039,-0.8166504,-0.4227295,0,0,0,0,0,0
1.564999,-0.9562932,-0.6441975,-0.9365066,0.1049198,0,0,0,0,0,0,0,0,0,0,0,1,0,0,0,0,0,0.02197266,-0.8736572,-0.4929199,0,0,0,0,0,0
1.569999,-0.923907,-0.6839312,-1,0.01176485,0,0,0,0,0,0,0,0,0,0,0,1,0,0,0,0,0,0.1446533,-0.8599854,-0.4887695,0,0,0,0,0,0
1.574999,-0.8432577,-0.771321,-1,-0.04314433,0,0,0,0,0,0,0,0,0,0,0,1,0,0,0.0432302,-0.02873684,-0.1062014,0.123291,-0.866333,-0.5249023,0,0,0,0,0,0
1.579999,-0.7866051,-0.8185484,-1,-0.09812176,0,0,0,0,0,0,0,0,0,0,0,1,0,0,0,0,0,0.04577637,-0.8800049,-0.5351563,0,0,0,0,0,0
1.584999,-0.7384164,-0.8581596,-1,-0.1453634,0,0,0,0,0,0,0,0,0,0,0,1,0,0,0,0,0,0.02307129,-0.9348145,-0.4936523,0,0,0,0,0,0
1.589999,-0.625725,-0.9286237,-1,-0.2403741,0,0,0,0,0,0,0,0,0,0,0,1,0,0,0,0,0,0.114502,-0.9909668,-0.388916,0,0,0,0,0,0
1.594999,-0.5702448,-0.9690174,-1,-0.2882255,0,0,0,0,0,0,0,0,0,0,0,0,0,0,0,0,0,0.07128906,-1.022827,-0.3476563,0,0,0,0,0,0
1.599999,-0.4580168,-1,-1,-0.3847782,0,0,0,0,0,0,0,0,0,0,0,0,0,0,0.1351881,-0.03123569,0.0362334,-0.03076172,-1.096191,-0.2928467,0,0,0,0,0,0
1.604999,-0.4091095,-1,-1,-0.4253754,0,0,0,0,0,0,0,0,0,0,0,0,0,0,0,0,0,-0.04675293,-1.100464,-0.2717285,0,0,0,0,0,0
1.609999,-0.3605264,-1,-1,-0.4580168,0,0,0,0,0,0,0,0,0,0,0,0,0,0,0,0,0,-0.05627441,-1.082642,-0.255249,0,0,0,0,0,0
1.614999,-0.2802319,-1,-0.9915852,-0.5057483,0,0,0,0,0,0,0,0,0,0,0,0,0,0,0,0,0,-0.03674316,-1.113281,-0.2817383,0,0,0,0,0,0
1.619999,-0.2403741,-1,-0.9836607,-0.5216986,0,0,0,0,0,0,0,0,0,0,0,0,0,0,0,0,0,-0.05639648,-1.014526,-0.2719727,0,0,0,0,0,0
1.624999,-0.1690417,-1,-0.9673843,-0.5453978,0,0,0,0,0,0,0,0,0,0,0,0,0,0,0.09320731,0.008246223,0.08421143,-0.0534668,-0.9571533,-0.2791748,0,0,0,0,0,0
1.629999,-0.1296006,-1,-0.9590133,-0.5531238,0,0,0,0,0,0,0,0,0,0,0,0,0,0,0,0,0,-0.05041504,-0.9880371,-0.2740479,0,0,0,0,0,0
1.634999,-0.09812176,-1,-0.9506614,-0.5608505,0,0,0,0,0,0,0,0,0,0,0,0,0,0,0,0,0,-0.05114746,-1.021851,-0.3300781,0,0,0,0,0,0
1.639999,-0.04314433,-1,-0.9512189,-0.5691394,0,0,0,0,0,0,0,0,0,0,0,0,0,0,0,0,0,-0.06481934,-1.056885,-0.4073486,0,0,0,0,0,0
1.644999,-0.01176485,-1,-0.9423288,-0.5685782,0,0,0,0,0,0,0,0,0,0,0,0,0,0,0,0,0,-0.07336426,-1.067017,-0.3826904,0,0,0,0,0,0
1.649999,0.01176485,-1,-0.9423288,-0.5685782,0,0,0,0,0,0,0,0,0,0,0,0,0,0,0,0,0,-0.06848145,-1.086914,-0.3743896,0,0,0,0,0,0
1.654999,0.05884144,-1,-0.9428936,-0.5768758,0,0,0,0,0,0,0,0,0,0,0,0,0,0,0,0,0,-0.0567627,-1.089233,-0.3828125,0,0,0,0,0,0
1.659999,0.08240198,-1,-0.9340156,-0.5763075,0,0,0,0,0,0,0,0,0,0,0,0,0,0,0,0,0,-0.07885742,-1.108154,-0.279541,0,0,0,0,0,0
1.664999,0.09812176,-1,-0.9428936,-0.5768758,0,0,0,0,0,0,0,0,0,0,0,0,0,0,0,0,0,-0.1168213,-1.183472,-0.2283936,0,0,0,0,0,0
1.669999,0.1374799,-1,-0.9340156,-0.5763075,0,0,0,0,0,0,0,0,0,0,0,0,0,0,0,0,0,-0.1357422,-1.162598,-0.3427734,0,0,0,0,0,0
1.674999,0.1532514,-1,-0.933445,-0.5680113,0,0,0,0,0,0,0,0,0,0,0,0,0,0,0,0,0,-0.1220703,-1.125,-0.3641357,0,0,0,0,0,0
1.679999,0.1611441,-1,-0.9412041,-0.5520143,0,0,0,0,0,0,0,0,0,0,0,0,0,0,0,0,0,-0.1182861,-1.139771,-0.3803711,0,0,0,0,0,0
1.684999,0.1769445,-1,-0.953648,-0.4708884,0,0,0,0,0,0,0,0,0,0,0,1,0,0,0,0,0,-0.1549072,-1.133911,-0.3468018,0,0,0,0,0,0
1.689999,0.1848525,-1,-0.9491243,-0.3977658,0,0,0,0,0,0,0,0,0,0,0,1,0,0,0,0,0,-0.163208,-1.083252,-0.3109131,0,0,0,0,0,0
1.694999,0.1927661,-1,-0.9017025,-0.1741486,0,0,0,0,0,0,0,0,0,0,0,1,0,0,-0.07058785,0.03944615,0.01476347,-0.1473389,-1.020264,-0.3449707,0,0,0,0,0,0
1.699999,0.2006854,-1,-0.8341322,-0.04189705,0,0,0,0,0,0,0,0,0,0,0,1,0,0,0,0,0,-0.170166,-0.9912109,-0.3466797,0,0,0,0,0,0
1.704999,0.2006854,-1,-0.780029,0.1017429,0,0,0,0,0,0,0,0,0,0,0,1,0,0,0,0,0,-0.1838379,-0.9179688,-0.3405762,0,0,0,0,0,0
1.709999,0.2006854,-1,-0.6537858,0.3698559,0,0,0,0,0,0,0,0,0,0,0,1,0,0,-0.05872311,0.04572906,-0.07546544,-0.1311035,-0.7347412,-0.368042,0,0,0,0,0,0
1.714999,0.2006854,-1,-0.605908,0.4930059,0,0,0,0,0,0,0,0,0,0,0,1,0,0,0,0,0,-0.09692383,-0.7963867,-0.4089355,0,0,0,0,0,0
1.719999,0.2006854,-1,-0.560015,0.6209689,0,0,0,0,0,0,0,0,0,0,0,1,0,0,0,0,0,-0.02307129,-0.8085938,-0.4398193,0,0,0,0,0,0
1.724999,0.2086106,-1,-0.4955541,0.8311262,0,0,0,0,0,0,0,0,0,0,0,1,0,0,-0.01974257,0.01449454,-0.1389477,0.07739258,-0.8312988,-0.6187744,0,0,0,0,0,0
1.729999,0.2086106,-1,-0.4909996,0.8837993,0,0,0,0,0,0,0,0,0,0,0,1,0,0,0,0,0,0.1273193,-0.8269043,-0.6837158,0,0,0,0,0,0
1.734999,0.2006854,-1,-0.4932755,0.9194655,0,0,0,0,0,0,0,0,0,0,0,1,0,0,0.02574031,-0.0422341,-0.1369484,0.1365967,-0.8530273,-0.5921631,0,0,0,0,0,0
1.739999,0.2006854,-1,-0.4932755,0.9194655,0,0,0,0,0,0,0,0,0,0,0,1,0,0,0,0,0,0.08007813,-0.8739014,-0.4938965,0,0,0,0,0,0
1.744999,0.2006854,-1,-0.4932755,0.9194655,0,0,0,0,0,0,0,0,0,0,0,1,0,0,0,0,0,0.02954102,-0.8936768,-0.434082,0,0,0,0,0,0
1.749999,0.2006854,-1,-0.483402,0.8921323,0,0,0,0,0,0,0,0,0,0,0,1,0,0,0.15293,-0.006247139,-0.04822791,0.05065918,-0.9414063,-0.3521729,0,0,0,0,0,0
1.754999,0.1927661,-1,-0.4792256,0.8298785,0,0,0,0,0,0,0,0,0,0,0,1,0,0,0,0,0,0.09375,-1.009644,-0.3830566,0,0,0,0,0,0
1.759999,0.1848525,-1,-0.4740131,0.7591918,0,0,0,0,0,0,0,0,0,0,0,1,0,0,0,0,0,0.1311035,-1.065552,-0.3968506,0,0,0,0,0,0
1.764999,0.1690417,-1,-0.4368884,0.6086566,0,0,0,0,0,0,0,0,0,0,0,1,0,0,0.2434084,0.001499435,0.09446443,0.04248047,-1.065308,-0.2694092,0,0,0,0,0,0
1.769999,0.1690417,-1,-0.4128626,0.5297795,0,0,0,0,0,0,0,0,0,0,0,0,0,0,0,0,0,0.06750488,-1.096558,-0.2563477,0,0,0,0,0,0
1.774999,0.1611441,-1,-0.3799525,0.4509717,0,0,0,0,0,0,0,0,0,0,0,0,0,0,0,0,0,0.06604004,-1.055054,-0.2269287,0,0,0,0,0,0
1.779999,0.1532514,-1,-0.3029333,0.2964186,0,0,0,0,0,0,0,0,0,0,0,0,0,0,0,0,0,0.0489502,-1.126587,-0.2681885,0,0,0,0,0,0
1.784999,0.1532514,-1,-0.2677235,0.2307961,0,0,0,0,0,0,0,0,0,0,0,0,0,0,0,0,0,0.03857422,-0.8447266,-0.2125244,0,0,0,0,0,0
1.789999,0.1453634,-1,-0.1744578,0.1238903,0,0,0,0,0,0,0,0,0,0,0,0,0,0,0.1506203,0.03044697,0.1319369,-0.02978516,-0.8417969,-0.1531982,0,0,0,0,0,0
1.794999,0.1453634,-1,-0.1249879,0.0826191,0,0,0,0,0,0,0,0,0,0,0,0,0,0,0,0,0,-0.07409668,-0.8641357,-0.1434326,0,0,0,0,0,0
1.799999,0.1453634,-1,-0.08713468,0.05638127,0,0,0,0,0,0,0,0,0,0,0,0,0,0,0,0,0,-0.08300781,-0.9106445,-0.151001,0,0,0,0,0,0
1.804999,0.1453634,-1,-0.0172296,0.009778961,0,0,0,0,0,0,0,0,0,0,0,0,0,0,0.09121566,0.05347987,0.124703,-0.07617188,-0.9633789,-0.1975098,0,0,0,0,0,0
1.809999,0.1453634,-1,0,0,0,0,0,0,0,0,0,0,0,0,0,0,0,0,0,0,0,-0.05883789,-0.9470215,-0.159668,0,0,0,0,0,0
1.814999,0.1453634,-1,0,0,0,0,0,0,0,0,0,0,0,0,0,0,0,0,0,0,0,-0.04589844,-0.9508057,-0.1228027,0,0,0,0,0,0
1.819999,0.1453634,-1,0,0,0,0,0,0,0,0,0,0,0,0,0,0,0,0,0,0,0,-0.1192627,-1.02771,-0.1322021,0,0,0,0,0,0
1.824998,0.1453634,-1,0,0,0,0,0,0,0,0,0,0,0,0,0,0,0,0,0,0,0,-0.1663818,-1.0979,-0.08483887,0,0,0,0,0,0
1.829998,0.1690417,-1,0,0,0,0,0,0,0,0,0,0,0,0,0,0,0,0,-0.06412317,0.04290255,0.09387816,-0.09436035,-1.107544,-0.1854248,0,0,0,0,0,0
1.834998,0.1848525,-1,0,0,0,0,0,0,0,0,0,0,0,0,0,0,0,0,0,0,0,-0.04919434,-1.032104,-0.2541504,0,0,0,0,0,0
1.839998,0.2086106,-1,0,0,0,0,0,0,0,0,0,0,0,0,0,0,0,0,0,0,0,-0.04992676,-1.025757,-0.2293701,0,0,0,0,0,0
1.844998,0.2483314,-1,0,0,0,0,0,0,0,0,0,0,0,0,0,1,0,0,-0.177933,0.02024238,0.05347987,-0.1270752,-1.019775,-0.1623535,0,0,0,0,0,0
1.849998,0.2562958,-1,0,0,0,0,0,0,0,0,0,0,0,0,0,1,0,0,0,0,0,-0.1413574,-0.9404297,-0.2232666,0,0,0,0,0,0
1.854998,0.2642672,-1,-0.02054352,0.02815223,0,0,0,0,0,0,0,0,0,0,0,1,0,0,0,0,0,-0.1191406,-0.8837891,-0.269043,0,0,0,0,0,0
1.859998,0.2882255,-1,-0.07785513,0.1097957,0,0,0,0,0,0,0,0,0,0,0,1,0,0,-0.2046563,0.003248512,-0.05897299,-0.1444092,-0.7073975,-0.1732178,0,0,0,0,0,0
1.864998,0.2962267,-1,-0.105041,0.1470574,0,0,0,0,0,0,0,0,0,0,0,1,0,0,0,0,0,-0.2132568,-0.713623,-0.3061523,0,0,0,0,0,0
1.869998,0.3042357,-1,-0.1342279,0.1921302,0,0,0,0,0,0,0,0,0,0,0,1,0,0,-0.1604265,0.007246681,-0.1009538,-0.1445313,-0.8187256,-0.2927246,0,0,0,0,0,0
1.874998,0.3042357,-1,-0.204483,0.2777306,0,0,0,0,0,0,0,0,0,0,0,1,0,0,0,0,0,0.02368164,-0.8925781,-0.4500732,0,0,0,0,0,0
1.879998,0.3042357,-1,-0.2204813,0.2887994,0,0,0,0,0,0,0,0,0,0,0,1,0,0,0,0,0,-0.0078125,-0.9056396,-0.4302979,0,0,0,0,0,0
1.884998,0.3042357,-1,-0.2278321,0.2902519,0,0,0,0,0,0,0,0,0,0,0,1,0,0,0,0,0,-0.05322266,-0.9630127,-0.4193115,0,0,0,0,0,0
1.889998,0.3042357,-1,-0.2278321,0.2902519,0,0,0,0,0,0,0,0,0,0,0,1,0,0,0,0,0,-0.04040527,-1.02002,-0.4061279,0,0,0,0,0,0
1.894998,0.3042357,-1,-0.2278321,0.2902519,0,0,0,0,0,0,0,0,0,0,0,1,0,0,0,0,0,-0.03234863,-1.058105,-0.3431396,0,0,0,0,0,0
1.899998,0.3042357,-1,-0.2278321,0.2902519,0,0,0,0,0,0,0,0,0,0,0,1,0,0,0,0,0,0.0255127,-1.005127,-0.3404541,0,0,0,0,0,0
1.904998,0.3042357,-1,-0.2278321,0.2902519,0,0,0,0,0,0,0,0,0,0,0,1,0,0,0,0,0,0.05566406,-0.9681396,-0.3631592,0,0,0,0,0,0
1.909998,0.3042357,-1,-0.214436,0.2567191,0,0,0,0,0,0,0,0,0,0,0,1,0,0,-0.04659721,-0.000922717,-0.07266396,0.06604004,-0.9454346,-0.3912354,0,0,0,0,0,0
1.914998,0.3042357,-1,-0.1966343,0.2377221,0,0,0,0,0,0,0,0,0,0,0,1,0,0,0,0,0,0.06848145,-0.9433594,-0.4060059,0,0,0,0,0,0
1.919998,0.3042357,-1,-0.1771529,0.2108964,0,0,0,0,0,0,0,0,0,0,0,1,0,0,0,0,0,0.0748291,-0.9169922,-0.4295654,0,0,0,0,0,0
1.924998,0.3042357,-1,0,0,0,0,0,0,0,0,0,0,0,0,0,1,0,0,-0.001999084,0.02323936,-0.04048146,-0.006591797,-0.8817139,-0.3331299,0,0,0,0,0,0
1.929998,0.2962267,-1,0,0,0,0,0,0,0,0,0,0,0,0,0,1,0,0,0,0,0,0.02319336,-0.9047852,-0.3260498,0,0,0,0,0,0
1.934998,0.2802319,-1,0,0,0,0,0,0,0,0,0,0,0,0,0,1,0,0,0,0,0,0.01123047,-0.8791504,-0.3583984,0,0,0,0,0,0
1.939998,0.2562958,-1,0,0,0,0,0,0,0,0,0,0,0,0,0,1,0,0,0.04546806,0.0509642,-0.0152393,-0.0135498,-0.9489746,-0.2928467,0,0,0,0,0,0
1.944998,0.2403741,-1,0,0,0,0,0,0,0,0,0,0,0,0,0,1,0,0,0,0,0,-0.02612305,-0.9781494,-0.2596436,0,0,0,0,0,0
1.949998,0.2165419,-1,0,0,0,0,0,0,0,0,0,0,0,0,0,1,0,0,0,0,0,-0.04846191,-1.011353,-0.2264404,0,0,0,0,0,0
1.954998,0.1927661,-1,0,0,0,0,0,0,0,0,0,0,0,0,0,1,0,0,0.01314756,0.06781371,0.00207593,-0.07824707,-0.9888916,-0.2370605,0,0,0,0,0,0
1.959998,0.1769445,-1,0,0,0,0,0,0,0,0,0,0,0,0,0,1,0,0,0,0,0,-0.08532715,-0.9984131,-0.2459717,0,0,0,0,0,0
1.964998,0.1690417,-1,0,0,0,0,0,0,0,0,0,0,0,0,0,1,0,0,0,0,0,-0.09008789,-1.001587,-0.2575684,0,0,0,0,0,0
1.969998,0.1453634,-1,0,0,0,0,0,0,0,0,0,0,0,0,0,1,0,0,0,0,0,-0.06628418,-0.9399414,-0.2703857,0,0,0,0,0,0
1.974998,0.1296006,-1,0,0,0,0,0,0,0,0,0,0,0,0,0,1,0,0,0,0,0,-0.0769043,-0.8930664,-0.3192139,0,0,0,0,0,0
1.979998,0.1059862,-1,0,0,0,0,0,0,0,0,0,0,0,0,0,1,0,0,-0.06447572,0.05997742,-0.05672864,-0.02062988,-0.8873291,-0.4165039,0,0,0,0,0,0
1.984998,0.09026043,-1,0,0,0,0,0,0,0,0,0,0,0,0,0,1,0,0,0,0,0,-0.0007324219,-0.8815918,-0.4837646,0,0,0,0,0,0
1.989998,0.06669273,-1,0,0,0,0,0,0,0,0,0,0,0,0,0,1,0,0,0,0,0,-0.02294922,-0.8830566,-0.5574951,0,0,0,0,0,0
1.994998,0.01960851,-1,0,0,0,0,0,0,0,0,0,0,0,0,0,1,0,0,-0.05697275,-0.003690542,-0.08649708,-0.07385254,-0.9105225,-0.6256104,0,0,0,0,0,0
1.999998,0.003921574,-1,0,0,0,0,0,0,0,0,0,0,0,0,0,1,0,0,0,0,0,-0.01623535,-0.9089355,-0.6181641,0,0,0,0,0,0
2.004998,0,-1,0,0,0,0,0,0,0,0,0,0,0,0,0,1,0,0,0,0,0,0.06066895,-0.9084473,-0.588623,0,0,0,0,0,0
2.009999,-0.04314433,-1,0,0,0,0,0,0,0,0,0,0,0,0,0,1,0,0,0,0,0,0.09899902,-0.9228516,-0.439209,0,0,0,0,0,0
2.014999,-0.05884144,-1,0,0,0,0,0,0,0,0,0,0,0,0,0,1,0,0,0,0,0,0.05114746,-0.779541,-0.3675537,0,0,0,0,0,0
2.019999,-0.07454614,-1,0,0,0,0,0,0,0,0,0,0,0,0,0,1,0,0,0,0,0,0.06164551,-0.6368408,-0.3015137,0,0,0,0,0,0
2.024999,-0.09026043,-1,0,0,0,0,0,0,0,0,0,0,0,0,0,1,0,0,0,0,0,0.1774902,-0.9433594,-0.4472656,0,0,0,0,0,0
2.029999,-0.09026043,-1,0,0,0,0,0,0,0,0,0,0,0,0,0,1,0,0,0,0,0,0.1020508,-0.9298096,-0.5355225,0,0,0,0,0,0
2.034999,-0.09812176,-1,-0.003460207,0,0,0,0,0,0,0,0,0,0,0,0,1,0,0,0.03852003,-0.04451717,0.01545415,0.04150391,-1.088013,-0.5206299,0,0,0,0,0,0
2.039999,-0.09812176,-1,-0.01268743,0,0,0,0,0,0,0,0,0,0,0,0,1,0,0,0,0,0,0.04919434,-1.119507,-0.4023438,0,0,0,0,0,0
2.044999,-0.1059862,-1,-0.01268743,0,0,0,0,0,0,0,0,0,0,0,0,1,0,0,0,0,0,0.02575684,-1.095825,-0.3031006,0,0,0,0,0,0
2.049999,-0.1296006,-1,-0.01268743,0,0,0,0,0,0,0,0,0,0,0,0,1,0,0,0.1237034,-0.008746706,0.1057102,0.01794434,-1.096924,-0.2718506,0,0,0,0,0,0
2.055,-0.1374799,-1,-0.01273989,-0.0003107291,0,0,0,0,0,0,0,0,0,0,0,0,0,0,0,0,0,0.01623535,-1.104126,-0.2713623,0,0,0,0,0,0
2.06,-0.1532514,-1,-0.01315794,-0.0009627763,0,0,0,0,0,0,0,0,0,0,0,0,0,0,0,0,0,0.015625,-1.06958,-0.2902832,0,0,0,0,0,0
2.065,-0.1848525,-1,-0.004892851,-0.0006272887,0,0,0,0,0,0,0,0,0,0,0,0,0,0,0,0,0,0.02880859,-1.125244,-0.3165283,0,0,0,0,0,0
2.07,-0.1927661,-1,0,0,0,0,0,0,0,0,1,0,0,0,0,0,0,0,0,0,0,-0.02111816,-1.14563,-0.2606201,0,0,0,0,0,0
2.075,-0.2165419,-1,0,0,0,0,0,0,0,0,1,0,0,0,0,0,0,0,-0.0277373,0.01049519,0.09595605,-0.02832031,-0.932251,-0.30896,0,0,0,0,0,0
2.08,-0.2324234,-1,0,0,0,0,0,0,0,0,1,0,0,0,0,0,0,0,0,0,0,-0.006591797,-0.8997803,-0.2896729,0,0,0,0,0,0
2.085,-0.2403741,-1,0,0,0,0,0,0,0,0,1,0,0,0,0,0,0,0,0,0,0,-0.02880859,-0.8897705,-0.2791748,0,0,0,0,0,0
2.09,-0.2722459,-1,0,0,0,0,0,0,0,0,1,0,0,0,0,0,0,0,0,0,0,-0.04614258,-0.9440918,-0.2928467,0,0,0,0,0,0
2.095001,-0.2802319,-1,0,0,0,0,0,0,0,0,1,0,0,0,0,0,0,0,0,0,0,-0.0480957,-0.9127197,-0.3215332,0,0,0,0,0,0
2.100001,-0.2962267,-1,0,0,0,0,0,0,0,0,1,0,0,0,0,0,0,0,0,0,0,-0.06335449,-0.8918457,-0.3444824,0,0,0,0,0,0
2.105001,-0.3283107,-1,0,0,0,0,0,0,0,0,1,0,0,0,0,0,0,0,0,0,0,-0.09155273,-0.9348145,-0.3292236,0,0,0,0,0,0
2.110001,-0.3444016,-1,0,0,0,0,0,0,0,0,1,0,0,0,0,0,0,0,0,0,0,-0.06237793,-0.9647217,-0.3348389,0,0,0,0,0,0
2.115001,-0.3928797,-1,0,0,0,0,0,0,0,0,1,0,0,0,0,1,0,0,-0.082962,0.01324393,-0.06547002,-0.02880859,-0.956543,-0.317749,0,0,0,0,0,0
2.120001,-0.423984,-0.9866543,0,0,0,0,0,0,0,0,1,0,0,0,0,1,0,0,0,0,0,-0.03552246,-0.932373,-0.3104248,0,0,0,0,0,0
2.125001,-0.4560802,-0.9795809,0,0,0,0,0,0,0,0,1,0,0,0,0,1,0,0,0,0,0,-0.02954102,-0.9282227,-0.3183594,0,0,0,0,0,0
2.130001,-0.5195622,-0.9479036,0,0,0,0,0,0,0,0,1,0,0,0,0,1,0,0,-0.09204102,0.01545551,-0.08350589,-0.03796387,-0.8950195,-0.2575684,0,0,0,0,0,0
2.135001,-0.542619,-0.9228483,0,0,0,0,0,0,0,0,1,0,0,0,0,1,0,0,0,0,0,-0.08007813,-0.8997803,-0.1501465,0,0,0,0,0,0
2.140002,-0.5662758,-0.9068332,0,0,0,0,0,0,0,0,1,0,0,0,0,1,0,0,0,0,0,-0.1182861,-1.027588,-0.2064209,0,0,0,0,0,0
2.145002,-0.6054335,-0.8745151,0,0,0,0,0,0,0,0,1,0,0,0,0,1,0,0,0,0,0,0.04187012,-1.026245,-0.2843018,0,0,0,0,0,0
2.150002,-0.6292626,-0.858805,0,0,0,0,0,0,0,0,1,0,0,0,0,1,0,0,0,0,0,0.06774902,-1.049316,-0.3709717,0,0,0,0,0,0
2.155002,-0.6531755,-0.8431901,0,0,0,0,0,0,0,0,1,0,0,0,0,1,0,0,-0.07571533,0.04048146,0.00449794,0.05566406,-1.047485,-0.4140625,0,0,0,0,0,0
2.160002,-0.6531755,-0.8431901,0,0,0,0,0,0,0,0,1,0,0,0,0,1,0,0,0,0,0,0.015625,-1.043823,-0.3880615,0,0,0,0,0,0
2.165002,-0.6525387,-0.8344585,-0.004892851,-0.0006272887,0,0,0,0,0,0,1,0,0,0,0,1,0,0,0,0,0,-0.0324707,-1.055542,-0.3277588,0,0,0,0,0,0
2.170002,-0.6609539,-0.8350974,-0.0230957,-0.002685547,0,0,0,0,0,0,1,0,0,0,0,1,0,0,-0.09521415,0.06172676,0.05997742,-0.01208496,-1.041016,-0.3035889,0,0,0,0,0,0
2.175002,-0.6609539,-0.8350974,-0.03222121,-0.003580134,0,0,0,0,0,0,1,0,0,0,0,1,0,0,0,0,0,0.05895996,-1.028076,-0.3730469,0,0,0,0,0,0
2.180002,-0.6603131,-0.8263798,-0.05050793,-0.005153871,0,0,0,0,0,0,1,0,0,0,0,1,0,0,0,0,0,0.07751465,-1.014404,-0.4262695,0,0,0,0,0,0
2.185003,-0.6603131,-0.8263798,-0.06883083,-0.006493475,0,0,0,0,0,0,1,0,0,0,0,1,0,0,0,0,0,0.02770996,-0.9938965,-0.4377441,0,0,0,0,0,0
2.190003,-0.6603131,-0.8263798,-0.0780027,-0.007091154,0,0,0,0,0,0,1,0,0,0,0,1,0,0,0,0,0,-0.001098633,-0.9492188,-0.4281006,0,0,0,0,0,0
2.195003,-0.6603131,-0.8263798,-0.08718024,-0.00764739,0,0,0,0,0,0,1,0,0,0,0,1,0,0,-0.1131982,0.02323936,0.06846865,-0.005004883,-0.9168701,-0.3808594,0,0,0,0,0,0
2.200003,-0.6609539,-0.8350974,-0.09575775,-0.001623013,0,0,0,0,0,0,1,0,0,0,0,1,0,0,0,0,0,0.05358887,-0.9375,-0.4099121,0,0,0,0,0,0
2.205003,-0.6603131,-0.8263798,-0.1051727,0.005172426,0,0,0,0,0,0,1,0,0,0,0,1,0,0,0,0,0,0.102417,-0.9521484,-0.4484863,0,0,0,0,0,0
2.210003,-0.6603131,-0.8263798,-0.1250818,0.01731901,0,0,0,0,0,0,1,0,0,0,0,1,0,0,-0.1794325,-0.01224539,0.04923147,0.1035156,-0.9350586,-0.447876,0,0,0,0,0,0
2.215003,-0.6525387,-0.8344585,-0.1349726,0.02215969,0,0,0,0,0,0,1,0,0,0,0,1,0,0,0,0,0,0.1187744,-0.895874,-0.4810791,0,0,0,0,0,0
2.220003,-0.6357424,-0.8331779,-0.1349726,0.02215969,0,0,0,0,0,0,0,0,0,0,0,1,0,0,0,0,0,0.07617188,-0.8034668,-0.4884033,0,0,0,0,0,0
2.225003,-0.6035641,-0.8481457,-0.1524967,0.01933056,0,0,0,0,0,0,0,0,0,0,0,1,0,0,-0.1789913,-0.01983666,0.003921201,0.05554199,-0.8875732,-0.4240723,0,0,0,0,0,0
2.230004,-0.5958595,-0.8563014,-0.1607354,0.01100928,0,0,0,0,0,0,0,0,0,0,0,1,0,0,0,0,0,0.03625488,-0.9482422,-0.4162598,0,0,0,0,0,0
2.235004,-0.5881603,-0.8644772,-0.160323,0,0,0,0,0,0,0,0,0,0,0,0,1,0,0,0,0,0,0.008666992,-0.8444824,-0.4370117,0,0,0,0,0,0
2.240004,-0.5727757,-0.8808895,-0.1911022,-0.03628522,0,0,0,0,0,0,0,0,0,0,0,1,0,0,-0.163675,0.01199451,-0.007746452,0.04223633,-0.7849121,-0.4899902,0,0,0,0,0,0
2.245004,-0.5650892,-0.8891264,-0.2176134,-0.08127728,0,0,0,0,0,0,0,0,0,0,0,1,0,0,0,0,0,0.06140137,-0.8112793,-0.4831543,0,0,0,0,0,0
2.250004,-0.5574057,-0.8973836,-0.2560216,-0.1409557,0,0,0,0,0,0,0,0,0,0,0,1,0,0,0,0,0,0.05053711,-0.8286133,-0.4523926,0,0,0,0,0,0
2.255004,-0.550306,-0.9145374,-0.3268249,-0.3004148,0,0,0,0,0,0,0,0,0,0,0,1,0,0,0,0,0,0.0291748,-0.8375244,-0.4031982,0,0,0,0,0,0
2.260004,-0.5420455,-0.9139598,-0.3551669,-0.3827527,0,0,0,0,0,0,0,0,0,0,0,1,0,0,0,0,0,0.02124023,-0.8563232,-0.3984375,0,0,0,0,0,0
2.265004,-0.5343676,-0.9222788,-0.3910239,-0.477121,0,0,0,0,0,0,0,0,0,0,0,1,0,0,0,0,0,0.007324219,-0.8726807,-0.3986816,0,0,0,0,0,0
2.270005,-0.5266904,-0.9306184,-0.4336514,-0.6599043,0,0,0,0,0,0,0,0,0,0,0,1,0,0,0,0,0,0.01513672,-0.9006348,-0.4005127,0,0,0,0,0,0
2.275005,-0.5184586,-0.9300593,-0.448999,-0.7483317,0,0,0,0,0,0,0,0,0,0,0,1,0,0,0,0,0,0.02124023,-0.8914795,-0.4125977,0,0,0,0,0,0
2.280005,-0.5031205,-0.9468173,-0.4589434,-0.8904287,0,0,0,0,0,0,0,0,0,0,0,1,0,0,-0.07071761,0.02498856,0.02223982,0.008422852,-0.8536377,-0.427124,0,0,0,0,0,0
2.285005,-0.4954499,-0.9552274,-0.4627222,-0.9531286,0,0,0,0,0,0,0,0,0,0,0,1,0,0,0,0,0,0.002685547,-0.8327637,-0.4425049,0,0,0,0,0,0
2.290005,-0.4714067,-0.9626203,-0.4642477,-0.9800786,0,0,0,0,0,0,0,0,0,0,0,1,0,0,0,0,0,-0.004394531,-0.8319092,-0.4083252,0,0,0,0,0,0
2.295005,-0.423984,-0.9866543,-0.4244535,-0.9956806,0,0,0,0,0,0,0,0,0,0,0,1,0,0,-0.07746452,0.04647871,0.01674233,-0.03833008,-0.78479,-0.463501,0,0,0,0,0,0
2.300005,-0.3924417,-1,-0.4005468,-1,0,0,0,0,0,0,0,0,0,0,0,1,0,0,0,0,0,-0.05383301,-0.7609863,-0.449585,0,0,0,0,0,0
2.305005,-0.3605264,-1,-0.3766855,-1,0,0,0,0,0,0,0,0,0,0,0,1,0,0,0,0,0,-0.04125977,-0.776123,-0.4576416,0,0,0,0,0,0
2.310005,-0.2882255,-1,-0.3202776,-1,0,0,0,0,0,0,0,0,0,0,0,1,0,0,-0.06647497,0.04823184,-0.02898908,-0.02124023,-0.8225098,-0.4344482,0,0,0,0,0,0
2.315006,-0.2403741,-1,-0.2882255,-1,0,0,0,0,0,0,0,0,0,0,0,1,0,0,0,0,0,-0.01074219,-0.8393555,-0.4160156,0,0,0,0,0,0
2.320006,-0.2086106,-1,-0.2642672,-1,0,0,0,0,0,0,0,0,0,0,0,1,0,0,0,0,0,-0.002929688,-0.8624268,-0.4049072,0,0,0,0,0,0
2.325006,-0.1374799,-1,-0.1690417,-1,0,0,0,0,0,0,0,0,0,0,0,1,0,0,-0.08221234,0.02698764,-0.09220777,0.01049805,-0.9301758,-0.3891602,0,0,0,0,0,0
2.330006,-0.1059862,-1,-0.113854,-1,0,0,0,0,0,0,0,0,0,0,0,1,0,0,0,0,0,0.02233887,-0.9771729,-0.3820801,0,0,0,0,0,0
2.335006,-0.07454614,-1,-0.06669273,-1,0,0,0,0,0,0,0,0,0,0,0,1,0,0,0,0,0,0.02661133,-1.010986,-0.3762207,0,0,0,0,0,0
2.340006,-0.01176485,-1,0.04314433,-1,0,0,0,0,0,0,0,0,0,0,0,1,0,0,-0.08858082,0.01014989,-0.09527052,0.03015137,-0.9937744,-0.3703613,0,0,0,0,0,0
2.345006,0.07454614,-1,0.1611441,-1,0,0,0,0,0,0,0,0,0,0,0,1,0,0,-0.1104954,0.007843095,-0.08835015,0.01098633,-0.9602051,-0.3908691,0,0,0,0,0,0
2.350006,0.1059862,-1,0.2006854,-1,0,0,0,0,0,0,0,0,0,0,0,1,0,0,0,0,0,-0.005737305,-0.963501,-0.3937988,0,0,0,0,0,0
2.355006,0.1374799,-1,0.2403741,-1,0,0,0,0,0,0,0,0,0,0,0,1,0,0,0,0,0,-0.002441406,-0.9638672,-0.4122314,0,0,0,0,0,0
2.360007,0.2244794,-1,0.3042357,-1,0,0,0,0,0,0,0,0,0,0,0,1,0,0,0,0,0,0.03723145,-0.9476318,-0.4824219,0,0,0,0,0,0
2.365007,0.2722459,-1,0.336352,-1,0,0,0,0,0,0,0,0,0,0,0,1,0,0,0,0,0,0.01867676,-0.9422607,-0.4862061,0,0,0,0,0,0
2.370007,0.4009901,-1,0.3847782,-1,0,0,0,0,0,0,0,0,0,0,0,1,0,0,-0.1656741,0.01174462,-0.004997711,0.05651855,-0.8907471,-0.5394287,0,0,0,0,0,0
2.375007,0.4743927,-1,0.3928797,-1,0,0,0,0,0,0,0,0,0,0,0,1,0,0,0,0,0,0.07531738,-0.8636475,-0.5811768,0,0,0,0,0,0
2.380007,0.5568311,-1,0.4091095,-1,0,0,0,0,0,0,0,0,0,0,0,1,0,0,0,0,0,0.08056641,-0.84729,-0.6075439,0,0,0,0,0,0
2.385007,0.7262222,-0.926836,0.433522,-1,0,0,0,0,0,0,0,0,0,0,0,1,0,0,-0.128719,-0.01014989,0.02352928,0.07214355,-0.8389893,-0.5935059,0,0,0,0,0,0
2.390007,0.8056167,-0.8456972,0.4416777,-1,0,0,0,0,0,0,0,0,0,0,0,1,0,0,0,0,0,0.07617188,-0.847168,-0.5738525,0,0,0,0,0,0
2.395007,0.8842907,-0.7402433,0.4498426,-1,0,0,0,0,0,0,0,0,0,0,0,1,0,0,0,0,0,0.09436035,-0.8591309,-0.5562744,0,0,0,0,0,0
2.400007,1,-0.5072563,0.4662001,-1,0,0,0,0,0,0,0,0,0,0,0,1,0,0,-0.1164467,-0.007246681,0.03698306,0.1090088,-0.8485107,-0.5821533,0,0,0,0,0,0
2.405008,1,-0.3847782,0.4743927,-1,0,0,0,0,0,0,0,0,0,0,0,1,0,0,0,0,0,0.0826416,-0.7941895,-0.5997314,0,0,0,0,0,0
2.410008,1,-0.2562958,0.4743927,-1,0,0,0,0,0,0,0,0,0,0,0,1,0,0,0,0,0,0.04553223,-0.7316895,-0.6257324,0,0,0,0,0,0
2.415008,1,-0.04314433,0.4825947,-1,0,0,0,0,0,0,0,0,0,0,0,1,0,0,0.02174181,0.001499435,0.01799322,-0.1044922,-0.6358643,-0.62854,0,0,0,0,0,0
2.420008,1,0.05099206,0.4825947,-1,0,0,0,0,0,0,0,0,0,0,0,1,0,0,0,0,0,-0.09973145,-0.7072754,-0.6414795,0,0,0,0,0,0
2.425008,1,0.1296006,0.4825947,-1,0,0,0,0,0,0,0,0,0,0,0,1,0,0,0,0,0,-0.05407715,-0.7724609,-0.6373291,0,0,0,0,0,0
2.430008,1,0.2403741,0.4825947,-1,0,0,0,0,0,0,0,0,0,0,0,1,0,0,0,0,0,-0.01757813,-0.7570801,-0.6727295,0,0,0,0,0,0
2.435008,1,0.2962267,0.4825947,-1,0,0,0,0,0,0,0,0,0,0,0,0,0,0,0,0,0,-0.06201172,-0.7885742,-0.6800537,0,0,0,0,0,0
2.440008,1,0.336352,0.4825947,-1,0,0,0,0,0,0,0,0,0,0,0,0,0,0,0,0,0,-0.08483887,-0.762085,-0.6716309,0,0,0,0,0,0
2.445009,1,0.4009901,0.4825947,-1,0,0,0,0,0,0,0,0,0,0,0,0,0,0,0,0,0,-0.1047363,-0.8168945,-0.6488037,0,0,0,0,0,0
2.450009,1,0.433522,0.4825947,-1,0,0,0,0,0,0,0,0,0,0,0,0,0,0,0,0,0,-0.08044434,-0.9361572,-0.7104492,0,0,0,0,0,0
2.455009,1,0.4908059,0.4825947,-1,0,0,0,0,0,0,0,0,0,0,0,0,0,0,0.3386225,-0.01924275,-0.0464825,-0.09619141,-0.736084,-0.5900879,0,0,0,0,0,0
2.460009,1,0.523744,0.4743927,-1,0,0,0,0,0,0,0,0,0,0,0,0,0,0,0,0,0,-0.07751465,-0.7255859,-0.5794678,0,0,0,0,0,0
2.465009,1,0.5485454,0.4580168,-1,0,0,0,0,0,0,0,0,0,0,0,0,0,0,0,0,0,-0.04760742,-0.7532959,-0.5534668,0,0,0,0,0,0
2.470009,1,0.5973468,0.433522,-1,0,0,0,0,0,0,0,0,0,0,0,0,0,0,0.4152226,-0.01707026,-0.08166045,-0.01879883,-0.8424072,-0.4272461,0,0,0,0,0,0
2.475009,0.9817535,0.6291237,0.4009901,-1,0,0,0,0,0,0,0,0,0,0,0,0,0,0,0,0,0,-0.02148438,-0.9328613,-0.3455811,0,0,0,0,0,0
2.480009,0.9491705,0.6688248,0.3524597,-1,0,0,0,0,0,0,0,0,0,0,0,0,0,0,0,0,0,-0.02514648,-1.005493,-0.2414551,0,0,0,0,0,0
2.485009,0.8936152,0.7493544,0.235254,-0.8677402,0,0,0,0,0,0,0,0,0,0,0,0,0,0,0.3840741,-0.00224897,-0.1002041,-0.002807617,-1.113037,-0.1166992,0,0,0,0,0,0
2.49001,0.8692912,0.7731484,0.1694205,-0.7642747,0,0,0,0,0,0,0,0,0,0,0,0,0,0,0,0,0,0.06628418,-1.126587,-0.1778564,0,0,0,0,0,0
2.49501,0.8370504,0.8050102,0.1205967,-0.6614547,0,0,0,0,0,0,0,0,0,0,0,0,0,0,0,0,0,0.1265869,-1.118774,-0.2093506,0,0,0,0,0,0
2.50001,0.765208,0.877385,0.03012022,-0.46519,0,0,0,0,0,0,0,0,0,0,0,0,0,0,0,0,0,0.1479492,-1.073853,-0.3063965,0,0,0,0,0,0
2.50501,0.7329409,0.9011568,-0.01601487,-0.4003717,0,0,0,0,0,0,0,0,0,0,0,0,0,0,0,0,0,0.1644287,-1.103516,-0.3520508,0,0,0,0,0,0
2.51001,0.6688248,0.9491705,-0.07293904,-0.2946737,0,0,0,0,0,0,0,0,0,0,0,0,0,0,0.1456951,0.01399473,-0.06622507,0.09680176,-1.201904,-0.3244629,0,0,0,0,0,0
2.51501,0.6285701,0.9728824,-0.09931882,-0.2639043,0,0,0,0,0,0,0,0,0,0,0,0,0,0,0,0,0,0.07666016,-1.208984,-0.3237305,0,0,0,0,0,0
2.52001,0.5879496,0.9879154,-0.1201934,-0.243182,0,0,0,0,0,0,0,0,0,0,0,0,0,0,0,0,0,0.06164551,-1.169556,-0.3530273,0,0,0,0,0,0
2.52501,0.5232409,1,-0.1648709,-0.2151705,0,0,0,0,0,0,0,0,0,0,0,0,0,0,0.02873684,0.06696933,0.00224897,0.009887695,-1.109253,-0.2984619,0,0,0,0,0,0
2.53001,0.4908059,1,-0.1915448,-0.2144159,0,0,0,0,0,0,0,0,0,0,0,1,0,0,0,0,0,-0.02709961,-1.08728,-0.2587891,0,0,0,0,0,0
2.535011,0.4662001,1,-0.2045278,-0.2102891,0,0,0,0,0,0,0,0,0,0,0,1,0,0,0,0,0,-0.03173828,-1.093262,-0.2237549,0,0,0,0,0,0
2.540011,0.4172379,1,-0.2711453,-0.2102138,0,0,0,0,0,0,0,0,0,0,0,1,0,0,0,0,0,-0.0234375,-1.000732,-0.2200928,0,0,0,0,0,0
2.545011,0.4009901,1,-0.2940801,-0.2074039,0,0,0,0,0,0,0,0,0,0,0,1,0,0,0,0,0,-0.02709961,-0.9438477,-0.2301025,0,0,0,0,0,0
2.550011,0.3766855,1,-0.3259635,-0.2057051,0,0,0,0,0,0,0,0,0,0,0,1,0,0,0,0,0,-0.046875,-0.9127197,-0.1374512,0,0,0,0,0,0
2.555011,0.3122526,1,-0.4093777,-0.2030247,0,0,0,0,0,0,0,0,0,0,0,1,0,0,0,0,0,-0.08459473,-0.8712158,-0.1911621,0,0,0,0,0,0
2.560011,0.2882255,1,-0.4620217,-0.2087654,0,0,0,0,0,0,0,0,0,0,0,1,0,0,0,0,0,0.01916504,-0.9222412,-0.2172852,0,0,0,0,0,0
2.565011,0.2403741,1,-0.5501831,-0.2094245,0,0,0,0,0,0,0,0,0,0,0,1,0,0,-0.02260657,0.07427871,0.01522483,0.1500244,-0.9310303,-0.4090576,0,0,0,0,0,0
2.570011,0.2086106,1,-0.6034625,-0.2059723,0,0,0,0,0,0,0,0,0,0,0,1,0,0,0,0,0,0.1647949,-0.8829346,-0.4954834,0,0,0,0,0,0
2.575011,0.1848525,1,-0.6395875,-0.2083228,0,0,0,0,0,0,0,0,0,0,0,1,0,0,0,0,0,0.1623535,-0.8317871,-0.5247803,0,0,0,0,0,0
2.580012,0.1374799,1,-0.7030181,-0.2120214,0,0,0,0,0,0,0,0,0,0,0,1,0,0,0,0,0,0.1572266,-0.8430176,-0.5906982,0,0,0,0,0,0
2.585012,0.113854,1,-0.7211829,-0.2129918,0,0,0,0,0,0,0,0,0,0,0,1,0,0,0,0,0,0.1323242,-0.8592529,-0.592041,0,0,0,0,0,0
2.590012,0.09026043,1,-0.7393638,-0.2139276,0,0,0,0,0,0,0,0,0,0,0,1,0,0,0,0,0,0.08898926,-0.8852539,-0.5458984,0,0,0,0,0,0
2.595012,0.05884144,1,-0.7575597,-0.2148303,0,0,0,0,0,0,0,0,0,0,0,1,0,0,0,0,0,0.01464844,-0.9008789,-0.4615479,0,0,0,0,0,0
2.600012,0.04314433,1,-0.7584702,-0.2301825,0,0,0,0,0,0,0,0,0,0,0,1,0,0,0,0,0,0.0201416,-0.8812256,-0.4642334,0,0,0,0,0,0
2.605012,0.003921574,1,-0.7614657,-0.2765522,0,0,0,0,0,0,0,0,0,0,0,1,0,0,0.02675643,-0.03160027,0.04428651,0.02209473,-0.8952637,-0.4176025,0,0,0,0,0,0
2.610012,-0.02745281,1,-0.7625432,-0.2921185,0,0,0,0,0,0,0,0,0,0,0,1,0,0,0,0,0,0.01025391,-0.9223633,-0.3483887,0,0,0,0,0,0
2.615012,-0.06669273,1,-0.7648008,-0.3234233,0,0,0,0,0,0,0,0,0,0,0,1,0,0,0,0,0,-0.03234863,-0.909668,-0.338501,0,0,0,0,0,0
2.620013,-0.1611441,1,-0.7874894,-0.3879826,0,0,0,0,0,0,0,0,0,0,0,1,0,0,0.02373913,-0.02198993,0.05872311,-0.009033203,-0.9376221,-0.2988281,0,0,0,0,0,0
2.625013,-0.2324234,1,-0.8172936,-0.4299507,0,0,0,0,0,0,0,0,0,0,0,1,0,0,0,0,0,0.02636719,-0.9373779,-0.3122559,0,0,0,0,0,0
2.630013,-0.2962267,1,-0.8482385,-0.4886166,0,0,0,0,0,0,0,0,0,0,0,1,0,0,0,0,0,0.04626465,-0.9188232,-0.3327637,0,0,0,0,0,0
2.635013,-0.4172379,1,-0.9086004,-0.5911855,0,0,0,0,0,0,0,0,0,0,0,1,0,0,0,0,0,0.0949707,-0.9229736,-0.2734375,0,0,0,0,0,0
2.640013,-0.4729256,0.9895671,-0.9086004,-0.5911855,0,0,0,0,0,0,0,0,0,0,0,0,0,0,0,0,0,0.1119385,-0.9094238,-0.2738037,0,0,0,0,0,0
2.645013,-0.5585776,0.9151164,-0.9091914,-0.5995105,0,0,0,0,0,0,0,0,0,0,0,0,0,0,0,0,0,0.01025391,-0.8890381,-0.2901611,0,0,0,0,0,0
2.650013,-0.5977109,0.8827121,-0.9103752,-0.6161929,0,0,0,0,0,0,0,0,0,0,0,0,0,0,0,0,0,0.06237793,-0.9892578,-0.2547607,0,0,0,0,0,0
2.655013,-0.6286343,0.8500402,-0.9109678,-0.62455,0,0,0,0,0,0,0,0,0,0,0,0,0,0,0,0,0,0.06091309,-0.9696045,-0.2664795,0,0,0,0,0,0
2.660013,-0.6725762,0.7669728,-0.8951521,-0.648488,0,0,0,0,0,0,0,0,0,0,0,0,0,0,0,0,0,0.02050781,-0.8455811,-0.204834,0,0,0,0,0,0
2.665014,-0.6952993,0.7345818,-0.8869745,-0.6562817,0,0,0,0,0,0,0,0,0,0,0,0,0,0,0,0,0,0.02270508,-0.8439941,-0.2344971,0,0,0,0,0,0
2.670014,-0.7311216,0.6529267,-0.870672,-0.6718884,0,0,0,0,0,0,0,0,0,0,0,0,0,0,0.01474325,0.02823707,0.05572448,0.06640625,-0.9682617,-0.2780762,0,0,0,0,0,0
2.675014,-0.7441725,0.6039096,-0.8712887,-0.6803213,0,0,0,0,0,0,0,0,0,0,0,0,0,0,0,0,0,0.09033203,-0.9822998,-0.2967529,0,0,0,0,0,0
2.680014,-0.7573472,0.555388,-0.8719043,-0.6887646,0,0,0,0,0,0,0,0,0,0,0,0,0,0,0,0,0,0.08740234,-0.9610596,-0.2890625,0,0,0,0,0,0
2.685014,-0.7653161,0.4422681,-0.8569256,-0.7214118,0,0,0,0,0,0,0,0,0,0,0,0,0,0,-0.009495651,0.02273958,0.04173089,0.04370117,-0.9526367,-0.2794189,0,0,0,0,0,0
2.690014,-0.7696528,0.386741,-0.8488457,-0.72929,0,0,0,0,0,0,0,0,0,0,0,0,0,0,0,0,0,0.0001220703,-0.9927979,-0.255249,0,0,0,0,0,0
2.695014,-0.7732183,0.3161434,-0.8407811,-0.7371777,0,0,0,0,0,0,0,0,0,0,0,0,0,0,0,0,0,-0.03442383,-1.051514,-0.2304688,0,0,0,0,0,0
2.700014,-0.8097181,0.1634642,-0.8414034,-0.7456988,0,0,0,0,0,0,0,0,0,0,0,0,0,0,0,0,0,-0.06079102,-1.132324,-0.2414551,0,0,0,0,0,0
2.705014,-0.8255034,0.07988743,-0.8414034,-0.7456988,0,0,0,0,0,0,0,0,0,0,0,0,0,0,0,0,0,-0.01928711,-1.125122,-0.276001,0,0,0,0,0,0
2.710015,-0.8906478,-0.1118129,-0.8414034,-0.7456988,0,0,0,0,0,0,0,0,0,0,0,1,0,0,-0.1746088,0.0006919767,-0.002767907,0.001464844,-1.084595,-0.2661133,0,0,0,0,0,0
2.715015,-0.9212087,-0.2060087,-0.8414034,-0.7456988,0,0,0,0,0,0,0,0,0,0,0,1,0,0,0,0,0,-0.02441406,-1.005371,-0.3006592,0,0,0,0,0,0
2.720015,-0.943781,-0.30154,-0.8414034,-0.7456988,0,0,0,0,0,0,0,0,0,0,0,1,0,0,0,0,0,-0.01062012,-0.9464111,-0.3579102,0,0,0,0,0,0
2.725015,-0.9552274,-0.4954499,-0.8414034,-0.7456988,0,0,0,0,0,0,0,0,0,0,0,1,0,0,-0.1754197,-0.01349382,-0.05622425,-0.01281738,-0.8123779,-0.1772461,0,0,0,0,0,0
2.730015,-0.9328762,-0.5597257,-0.8407811,-0.7371777,0,0,0,0,0,0,0,0,0,0,0,1,0,0,0,0,0,-0.1270752,-0.8574219,-0.2041016,0,0,0,0,0,0
2.735015,-0.8927374,-0.6149969,-0.8482235,-0.7207909,0,0,0,0,0,0,0,0,0,0,0,1,0,0,0,0,0,-0.008056641,-0.94104,-0.2857666,0,0,0,0,0,0
2.740015,-0.8215328,-0.7104076,-0.8625466,-0.6797026,0,0,0,0,0,0,0,0,0,0,0,1,0,0,-0.1093323,-0.03067763,-0.05120628,0.1251221,-0.9038086,-0.4949951,0,0,0,0,0,0
2.745015,-0.7821831,-0.7583603,-0.8700544,-0.6634662,0,0,0,0,0,0,0,0,0,0,0,1,0,0,0,0,0,0.116333,-0.873291,-0.5985107,0,0,0,0,0,0
2.750015,-0.7425422,-0.7981337,-0.8857571,-0.6394928,0,0,0,0,0,0,0,0,0,0,0,1,0,0,0,0,0,0.1082764,-0.8234863,-0.6387939,0,0,0,0,0,0
2.755016,-0.6634662,-0.8700544,-0.9174469,-0.5917731,0,0,0,0,0,0,0,0,0,0,0,1,0,0,0,0,0,0.01049805,-0.8269043,-0.6350098,0,0,0,0,0,0
2.760016,-0.6161929,-0.9103752,-0.933445,-0.5680113,0,0,0,0,0,0,0,0,0,0,0,1,0,0,0,0,0,-0.01965332,-0.8956299,-0.6392822,0,0,0,0,0,0
2.765016,-0.5768758,-0.9428936,-0.9412041,-0.5520143,0,0,0,0,0,0,0,0,0,0,0,1,0,0,0,0,0,-0.01025391,-0.9344482,-0.6029053,0,0,0,0,0,0
2.770016,-0.4893174,-0.9905694,-0.9647085,-0.5041893,0,0,0,0,0,0,0,0,0,0,0,1,0,0,0,0,0,0.0135498,-0.9433594,-0.4864502,0,0,0,0,0,0
2.775016,-0.4416777,-1,-0.9805801,-0.4724252,0,0,0,0,0,0,0,0,0,0,0,1,0,0,0,0,0,0.04772949,-0.9460449,-0.4675293,0,0,0,0,0,0
2.780016,-0.3605264,-1,-0.9947569,-0.408207,0,0,0,0,0,0,0,0,0,0,0,1,0,0,0.05947276,-0.06247139,-0.04647871,0.03271484,-0.9401855,-0.3859863,0,0,0,0,0,0
2.785016,-0.3122526,-1,-1,-0.360111,0,0,0,0,0,0,0,0,0,0,0,1,0,0,0,0,0,0.01757813,-0.9516602,-0.3771973,0,0,0,0,0,0
2.790016,-0.2802319,-1,-0.9976897,-0.2878709,0,0,0,0,0,0,0,0,0,0,0,1,0,0,0,0,0,0.02392578,-0.9810791,-0.3894043,0,0,0,0,0,0
2.795017,-0.1927661,-1,-0.9081877,-0.06569869,0,0,0,0,0,0,0,0,0,0,0,1,0,0,0.02514404,-0.03575528,-0.03967683,0,-1.012207,-0.3624268,0,0,0,0,0,0
2.800017,-0.1453634,-1,-0.8249986,0.04942388,0,0,0,0,0,0,0,0,0,0,0,1,0,0,0,0,0,0.01989746,-0.980957,-0.4379883,0,0,0,0,0,0
2.805017,-0.05099206,-1,-0.6438572,0.2612221,0,0,0,0,0,0,0,0,0,0,0,1,0,0,0.02473867,-0.04198077,-0.04447963,0.02941895,-0.9251709,-0.5360107,0,0,0,0,0,0
2.810017,0.05884144,-1,-0.3858429,0.4354007,0,0,0,0,0,0,0,0,0,0,0,1,0,0,0.0422341,-0.05422958,-0.05997742,-0.005249023,-0.9030762,-0.5056152,0,0,0,0,0,0
2.815017,0.09026043,-1,-0.3191597,0.4594497,0,0,0,0,0,0,0,0,0,0,0,1,0,0,0,0,0,0.01220703,-0.927124,-0.4829102,0,0,0,0,0,0
2.820017,0.113854,-1,-0.2472925,0.484136,0,0,0,0,0,0,0,0,0,0,0,1,0,0,0,0,0,0.04089355,-0.9415283,-0.4559326,0,0,0,0,0,0
2.825017,0.1453634,-1,-0.1475684,0.4907507,0,0,0,0,0,0,0,0,0,0,0,1,0,0,0.0189913,-0.05347551,-0.06671944,0.06506348,-0.9675293,-0.3991699,0,0,0,0,0,0
2.830017,0.1532514,-1,-0.1195226,0.4883352,0,0,0,0,0,0,0,0,0,0,0,1,0,0,0,0,0,0.0723877,-0.9916992,-0.3765869,0,0,0,0,0,0
2.835017,0.1690417,-1,-0.09775314,0.468541,0,0,0,0,0,0,0,0,0,0,0,1,0,0,0,0,0,0.09313965,-1.021973,-0.362793,0,0,0,0,0,0
2.840018,0.2006854,-1,-0.07262503,0.3757556,0,0,0,0,0,0,0,0,0,0,0,1,0,0,0,0,0,0.07775879,-1.12207,-0.267334,0,0,0,0,0,0
2.845018,0.2165419,-1,-0.05680534,0.3199038,0,0,0,0,0,0,0,0,0,0,0,1,0,0,0,0,0,0.08044434,-1.134766,-0.2485352,0,0,0,0,0,0
2.850018,0.2642672,-1,-0.02294124,0.2166672,0,0,0,0,0,0,0,0,0,0,0,1,0,0,-0.03967683,0.03483257,0.03529393,-0.01635742,-1.004761,-0.1479492,0,0,0,0,0,0
2.855018,0.2802319,-1,-0.006787647,0.1696912,0,0,0,0,0,0,0,0,0,0,0,1,0,0,0,0,0,-0.06481934,-0.9914551,-0.1889648,0,0,0,0,0,0
2.860018,0.2962267,-1,0.009935125,0.1331307,0,0,0,0,0,0,0,0,0,0,0,1,0,0,0,0,0,-0.02783203,-1.028442,-0.2199707,0,0,0,0,0,0
2.865018,0.3202776,-1,0.02114725,0.07472026,0,0,0,0,0,0,0,0,0,0,0,1,0,0,0,0,0,0.006469727,-0.9499512,-0.361084,0,0,0,0,0,0
2.870018,0.3202776,-1,0.02737064,0.06386483,0,0,0,0,0,0,0,0,0,0,0,1,0,0,0,0,0,0.002197266,-0.947998,-0.3928223,0,0,0,0,0,0
2.875018,0.3202776,-1,0.02963856,0.05334941,0,0,0,0,0,0,0,0,0,0,0,1,0,0,0,0,0,-0.008422852,-0.960083,-0.3880615,0,0,0,0,0,0
2.880018,0.3122526,-1,0.05007552,0.06152136,0,0,0,0,0,0,0,0,0,0,0,1,0,0,0,0,0,-0.07006836,-0.9838867,-0.3580322,0,0,0,0,0,0
2.885019,0.2962267,-1,0.06137522,0.06767011,0,0,0,0,0,0,0,0,0,0,0,1,0,0,0,0,0,-0.05761719,-0.9573975,-0.3847656,0,0,0,0,0,0
2.890019,0.2403741,-1,0.1003784,0.08463278,0,0,0,0,0,0,0,0,0,0,0,1,0,0,-0.08027638,-0.01430211,0.05167215,-0.005737305,-0.9007568,-0.4334717,0,0,0,0,0,0
2.895019,0.1927661,-1,0.1341747,0.1068849,0,0,0,0,0,0,0,0,0,0,0,1,0,0,0,0,0,-0.01586914,-0.9130859,-0.4110107,0,0,0,0,0,0
2.900019,0.1296006,-1,0.1631167,0.1330028,0,0,0,0,0,0,0,0,0,0,0,1,0,0,0,0,0,-0.1549072,-0.963501,-0.2186279,0,0,0,0,0,0
2.905019,-0.02745281,-1,0.2442153,0.2261253,0,0,0,0,0,0,0,0,0,0,0,1,0,0,-0.09395697,-0.01674233,0.03223523,-0.02648926,-0.9364014,-0.3272705,0,0,0,0,0,0
2.910019,-0.1217254,-1,0.2780265,0.2844179,0,0,0,0,0,0,0,0,0,0,0,1,0,0,0,0,0,-0.04772949,-0.9033203,-0.307251,0,0,0,0,0,0
2.915019,-0.2403741,-1,0.3289958,0.3629129,0,0,0,0,0,0,0,0,0,0,0,1,0,0,0,0,0,0.01623535,-0.9007568,-0.3863525,0,0,0,0,0,0
2.920019,-0.5052344,-0.9826212,0.4119262,0.5212871,0,0,0,0,0,0,0,0,0,0,0,1,0,0,0,0,0,0.1387939,-0.8248291,-0.5249023,0,0,0,0,0,0
2.92502,-0.6400992,-0.8945485,0.4432795,0.592281,0,0,0,0,0,0,0,0,0,0,0,1,0,0,0,0,0,0.1843262,-0.8175049,-0.5456543,0,0,0,0,0,0
2.93002,-0.8757444,-0.6221352,0.4956716,0.7262165,0,0,0,0,0,0,0,0,0,0,0,1,0,0,-0.05472494,-0.08920915,0.01749199,0.2719727,-0.8374023,-0.5081787,0,0,0,0,0,0
2.93502,-0.9552274,-0.4954499,0.5230814,0.7633113,0,0,0,0,0,0,0,0,0,0,0,1,0,0,0,0,0,0.2210693,-0.8187256,-0.4468994,0,0,0,0,0,0
2.94002,-1,-0.3681803,0.5952306,0.8475138,0,0,0,0,0,0,0,0,0,0,0,1,0,0,-0.02498856,-0.05772356,0.06671944,0.03125,-0.7904053,-0.4072266,0,0,0,0,0,0
2.94502,-1,-0.3283107,0.6305027,0.876359,0,0,0,0,0,0,0,0,0,0,0,1,0,0,0,0,0,-0.01477051,-0.8288574,-0.4249268,0,0,0,0,0,0
2.95002,-1,-0.2962267,0.648488,0.8951521,0,0,0,0,0,0,0,0,0,0,0,1,0,0,0,0,0,-0.06152344,-0.8186035,-0.4283447,0,0,0,0,0,0
2.95502,-1,-0.2403741,0.6737174,0.8969611,0,0,0,0,0,0,0,0,0,0,0,1,0,0,0.00224897,-0.02473867,0.08271211,-0.02038574,-0.8856201,-0.4106445,0,0,0,0,0,0
2.96002,-1,-0.2165419,0.682148,0.8975631,0,0,0,0,0,0,0,0,0,0,0,1,0,0,0,0,0,-0.004272461,-0.9301758,-0.4448242,0,0,0,0,0,0
2.96502,-1,-0.1927661,0.6905887,0.8981643,0,0,0,0,0,0,0,0,0,0,0,1,0,0,0,0,0,-0.008056641,-0.9423828,-0.4460449,0,0,0,0,0,0
2.970021,-1,-0.1296006,0.7220283,0.8656361,0,0,0,0,0,0,0,0,0,0,0,1,0,0,0,0,0,-0.01940918,-0.9051514,-0.4315186,0,0,0,0,0,0
2.975021,-1,-0.08240198,0.7377991,0.849466,0,0,0,0,0,0,0,0,0,0,0,1,0,0,0,0,0,-0.02868652,-0.8894043,-0.4228516,0,0,0,0,0,0
2.980021,-1,0.035298,0.7688331,0.808669,0,0,0,0,0,0,0,0,0,0,0,1,0,0,-0.007996337,-0.03948192,0.07246681,-0.01660156,-0.8538818,-0.4173584,0,0,0,0,0,0
2.985021,-1,0.09026043,0.7926962,0.7847294,0,0,0,0,0,0,0,0,0,0,0,1,0,0,0,0,0,-0.01672363,-0.8636475,-0.4146729,0,0,0,0,0,0
2.990021,-1,0.1453634,0.808669,0.7688331,0,0,0,0,0,0,0,0,0,0,0,1,0,0,0,0,0,-0.01196289,-0.8837891,-0.4216309,0,0,0,0,0,0
2.995021,-1,0.2802319,0.846974,0.7038234,0,0,0,0,0,0,0,0,0,0,0,1,0,0,0.002537472,-0.03229509,0.03990751,0.009521484,-0.8979492,-0.4368896,0,0,0,0,0,0
3.000021,-1,0.336352,0.8788145,0.6640815,0,0,0,0,0,0,0,0,0,0,0,1,0,0,0,0,0,0.0267334,-0.918335,-0.442749,0,0,0,0,0,0
3.005021,-1,0.4009901,0.9015527,0.6155977,0,0,0,0,0,0,0,0,0,0,0,1,0,0,0,0,0,0.04003906,-0.9255371,-0.4428711,0,0,0,0,0,0
3.010021,-0.9584652,0.5448537,0.9557601,0.5036578,0,0,0,0,0,0,0,0,0,0,0,1,0,0,0,0,0,0.02709961,-0.9116211,-0.4171143,0,0,0,0,0,0
3.015022,-0.9274606,0.6090192,0.9781127,0.4316368,0,0,0,0,0,0,0,0,0,0,0,1,0,0,0,0,0,0.004516602,-0.8988037,-0.4036865,0,0,0,0,0,0
3.020022,-0.8482235,0.7207909,1,0.2642672,0,0,0,0,0,0,0,0,0,0,0,1,0,0,0.005247597,0.0002498855,0.03498398,-0.04797363,-0.916626,-0.3931885,0,0,0,0,0,0
3.025022,-0.8080384,0.7602726,1,0.1848525,0,0,0,0,0,0,0,0,0,0,0,1,0,0,0,0,0,-0.07324219,-0.9163818,-0.3948975,0,0,0,0,0,0
3.030022,-0.7761437,0.7920645,1,0.1059862,0,0,0,0,0,0,0,0,0,0,0,1,0,0,0,0,0,-0.104248,-0.8980713,-0.3980713,0,0,0,0,0,0
3.035022,-0.7371777,0.8407811,1,-0.04314433,0,0,0,0,0,0,0,0,0,0,0,1,0,0,0.007150426,-0.002537248,-0.01476217,-0.1159668,-0.8916016,-0.4200439,0,0,0,0,0,0
3.040022,-0.7207909,0.8482235,1,-0.113854,0,0,0,0,0,0,0,0,0,0,0,1,0,0,0,0,0,-0.1077881,-0.9189453,-0.4182129,0,0,0,0,0,0
3.045022,-0.7129246,0.856306,1,-0.2086106,0,0,0,0,0,0,0,0,0,0,0,1,0,0,-0.003460189,-0.009457849,-0.05905389,-0.1054688,-0.9499512,-0.3929443,0,0,0,0,0,0
3.050022,-0.7129246,0.856306,1,-0.2403741,0,0,0,0,0,0,0,0,0,0,0,1,0,0,0,0,0,-0.08618164,-0.9232178,-0.4154053,0,0,0,0,0,0
3.055022,-0.7129246,0.856306,1,-0.2722459,0,0,0,0,0,0,0,0,0,0,0,1,0,0,0,0,0,-0.05981445,-0.9017334,-0.4309082,0,0,0,0,0,0
3.060023,-0.7135427,0.865021,1,-0.3359554,0,0,0,0,0,0,0,0,0,0,0,1,0,0,-0.01974096,-0.01074508,-0.09370708,-0.01953125,-0.8968506,-0.4395752,0,0,0,0,0,0
3.065023,-0.7129246,0.856306,0.9921125,-0.3596902,0,0,0,0,0,0,0,0,0,0,0,1,0,0,0,0,0,-0.01000977,-0.9047852,-0.4437256,0,0,0,0,0,0
3.070023,-0.7129246,0.856306,0.9843547,-0.3834635,0,0,0,0,0,0,0,0,0,0,0,1,0,0,0,0,0,-0.01013184,-0.9099121,-0.4355469,0,0,0,0,0,0
3.075023,-0.7214118,0.8569256,0.9771562,-0.4153903,0,0,0,0,0,0,0,0,0,0,0,1,0,0,0,0,0,-0.006835938,-0.916748,-0.4476318,0,0,0,0,0,0
3.080023,-0.7214118,0.8569256,0.9776322,-0.4235087,0,0,0,0,0,0,0,0,0,0,0,1,0,0,0,0,0,-0.01611328,-0.9355469,-0.4451904,0,0,0,0,0,0
3.085023,-0.7299091,0.8575435,0.9695919,-0.4392845,0,0,0,0,0,0,0,0,0,0,0,1,0,0,0.005074495,-0.00415186,-0.09111026,-0.02746582,-0.9567871,-0.4506836,0,0,0,0,0,0
3.090023,-0.7384164,0.8581596,0.9695919,-0.4392845,0,0,0,0,0,0,0,0,0,0,0,1,0,0,0,0,0,-0.02526855,-0.9709473,-0.4537354,0,0,0,0,0,0
3.095023,-0.7463182,0.8500843,0.9700872,-0.447428,0,0,0,0,0,0,0,0,0,0,0,1,0,0,0,0,0,-0.0168457,-0.9750977,-0.4599609,0,0,0,0,0,0
3.100024,-0.7700843,0.8259454,0.9700872,-0.447428,0,0,0,0,0,0,0,0,0,0,0,1,0,0,0.01449336,-0.01249428,-0.09020869,0.008544922,-0.9719238,-0.4537354,0,0,0,0,0,0
3.105024,-0.7774033,0.8092968,0.9700872,-0.447428,0,0,0,0,0,0,0,0,0,0,0,1,0,0,0,0,0,0.01928711,-0.9659424,-0.4447021,0,0,0,0,0,0
3.110024,-0.7847294,0.7926962,0.9700872,-0.447428,0,0,0,0,0,0,0,0,0,0,0,1,0,0,0,0,0,0.03552246,-0.9602051,-0.4433594,0,0,0,0,0,0
3.115024,-0.8173026,0.7694606,0.9700872,-0.447428,0,0,0,0,0,0,0,0,0,0,0,1,0,0,0.03423432,-0.009245765,-0.05897299,0.07250977,-0.9504395,-0.4191895,0,0,0,0,0,0
3.120024,-0.8246963,0.7529836,0.9705868,-0.4555815,0,0,0,0,0,0,0,0,0,0,0,1,0,0,0,0,0,0.07714844,-0.9422607,-0.4102783,0,0,0,0,0,0
3.125024,-0.8401566,0.7286666,0.9705868,-0.4555815,0,0,0,0,0,0,0,0,0,0,0,1,0,0,0,0,0,0.08776855,-0.9381104,-0.4090576,0,0,0,0,0,0
3.130024,-0.8806496,0.6893774,0.9615974,-0.455077,0,0,0,0,0,0,0,0,0,0,0,1,0,0,0,0,0,0.1036377,-0.9440918,-0.397583,0,0,0,0,0,0
3.135024,-0.8963585,0.6652973,0.9615974,-0.455077,0,0,0,0,0,0,0,0,0,0,0,1,0,0,0,0,0,0.1090088,-0.9500732,-0.3970947,0,0,0,0,0,0
3.140024,-0.9357346,0.6012593,0.9621069,-0.4632367,0,0,0,0,0,0,0,0,0,0,0,1,0,0,0.04821196,0.02283725,-0.006228339,0.1164551,-0.9439697,-0.4124756,0,0,0,0,0,0
3.145025,-0.9512189,0.5691394,0.9621069,-0.4632367,0,0,0,0,0,0,0,0,0,0,0,1,0,0,0,0,0,0.1011963,-0.9411621,-0.4211426,0,0,0,0,0,0
3.150025,-0.9673843,0.5453978,0.9531286,-0.4627222,0,0,0,0,0,0,0,0,0,0,0,1,0,0,0,0,0,0.07092285,-0.9541016,-0.425293,0,0,0,0,0,0
3.155025,-0.9831394,0.5134615,0.953648,-0.4708884,0,0,0,0,0,0,0,0,0,0,0,1,0,0,0.07246681,0.04972723,0.01124485,0.01647949,-0.9907227,-0.4273682,0,0,0,0,0,0
3.160025,-0.9826212,0.5052344,0.9446808,-0.4703641,0,0,0,0,0,0,0,0,0,0,0,1,0,0,0,0,0,0.02197266,-1.00647,-0.4376221,0,0,0,0,0,0
3.165025,-0.9905694,0.4893174,0.9362543,-0.4780032,0,0,0,0,0,0,0,0,0,0,0,1,0,0,0,0,0,0.03344727,-1.001465,-0.447998,0,0,0,0,0,0
3.170025,-0.9985589,0.4734204,0.9446808,-0.4703641,0,0,0,0,0,0,0,0,0,0,0,1,0,0,0,0,0,0.02380371,-1.012207,-0.4194336,0,0,0,0,0,0
3.175025,-0.9985589,0.4734204,0.9246324,-0.4367412,0,0,0,0,0,0,0,0,0,0,0,1,0,0,0,0,0,-0.02624512,-1.027954,-0.3735352,0,0,0,0,0,0
3.180025,-0.9985589,0.4734204,0.8162456,-0.2874104,0,0,0,0,0,0,0,0,0,0,0,1,0,0,0.03183374,0.05213351,0.02029977,-0.04858398,-1.049927,-0.3579102,0,0,0,0,0,0
3.185025,-0.9985589,0.4734204,0.7384701,-0.1986747,0,0,0,0,0,0,0,0,0,0,0,1,0,0,0,0,0,-0.03942871,-1.074585,-0.3704834,0,0,0,0,0,0
3.190026,-0.9985589,0.4734204,0.6611255,-0.1132314,0,0,0,0,0,0,0,0,0,0,0,1,0,0,0,0,0,-0.02050781,-1.007568,-0.3857422,0,0,0,0,0,0
3.195026,-0.9980689,0.4652353,0.520651,0.03792822,0,0,0,0,0,0,0,0,0,0,0,1,0,0,-0.01324393,0.02573821,-0.008745994,0.005371094,-0.9705811,-0.4140625,0,0,0,0,0,0
3.200026,-0.9980689,0.4652353,0.4315453,0.08894444,0,0,0,0,0,0,0,0,0,0,0,1,0,0,0,0,0,0.01708984,-0.9368896,-0.4294434,0,0,0,0,0,0
3.205026,-0.9980689,0.4652353,0.3634434,0.1232547,0,0,0,0,0,0,0,0,0,0,0,1,0,0,0,0,0,0.03186035,-0.8984375,-0.4467773,0,0,0,0,0,0
3.210026,-0.9980689,0.4652353,0.2293837,0.1614181,0,0,0,0,0,0,0,0,0,0,0,1,0,0,0,0,0,0.03295898,-0.8651123,-0.4285889,0,0,0,0,0,0
3.215026,-0.9980689,0.4652353,0.1843283,0.1843283,0,0,0,0,0,0,0,0,0,0,0,1,0,0,0,0,0,0.04736328,-0.862915,-0.4289551,0,0,0,0,0,0
3.220026,-0.9975828,0.4570599,0.1475575,0.1958491,0,0,0,0,0,0,0,0,0,0,0,1,0,0,0,0,0,0.05749512,-0.8414307,-0.4279785,0,0,0,0,0,0
3.225026,-0.9971008,0.448894,0.09089782,0.2451487,0,0,0,0,0,0,0,0,0,0,0,1,0,0,0,0,0,0.05200195,-0.8334961,-0.4313965,0,0,0,0,0,0
3.230026,-0.9971008,0.448894,0.06539839,0.2758106,0,0,0,0,0,0,0,0,0,0,0,1,0,0,0,0,0,0.04528809,-0.8250732,-0.4195557,0,0,0,0,0,0
3.235027,-1,0.4330592,0.02798782,0.3638416,0,0,0,0,0,0,0,0,0,0,0,1,0,0,0.07746452,0.05172631,-0.05447505,0.06628418,-0.8302002,-0.3980713,0,0,0,0,0,0
3.240027,-1,0.4330592,0.02258329,0.4097253,0,0,0,0,0,0,0,0,0,0,0,1,0,0,0,0,0,0.08813477,-0.8352051,-0.4080811,0,0,0,0,0,0
3.245027,-1,0.4249173,0.02329027,0.4558239,0,0,0,0,0,0,0,0,0,0,0,1,0,0,0,0,0,0.08813477,-0.831665,-0.4407959,0,0,0,0,0,0
3.250027,-1,0.4253754,0.04541455,0.5484681,0,0,0,0,0,0,0,0,0,0,0,1,0,0,0.08321866,0.03548664,-0.050481,0.1154785,-0.7532959,-0.5614014,0,0,0,0,0,0
3.255027,-1,0.4172379,0.07460564,0.5861872,0,0,0,0,0,0,0,0,0,0,0,1,0,0,0,0,0,0.1153564,-0.684082,-0.5568848,0,0,0,0,0,0
3.260027,-1,0.4091095,0.1489035,0.6355637,0,0,0,0,0,0,0,0,0,0,0,1,0,0,0.1824313,0.03123824,-0.0464825,0.05090332,-0.6629639,-0.5302734,0,0,0,0,0,0
3.265027,-1,0.3928797,0.1784851,0.6374469,0,0,0,0,0,0,0,0,0,0,0,1,0,0,0,0,0,0.09606934,-0.767334,-0.4801025,0,0,0,0,0,0
3.270027,-1,0.3847782,0.2083228,0.6395875,0,0,0,0,0,0,0,0,0,0,0,1,0,0,0,0,0,0.08398438,-0.8583984,-0.3968506,0,0,0,0,0,0
3.275028,-1,0.3766855,0.257094,0.5902299,0,0,0,0,0,0,0,0,0,0,0,1,0,0,0.2083033,0.03275645,0.024452,0.1378174,-1.000488,-0.2924805,0,0,0,0,0,0
3.280028,-1,0.3686016,0.3016518,0.4403423,0,0,0,0,0,0,0,0,0,0,0,0,0,0,0,0,0,-0.01745605,-1.072754,-0.2034912,0,0,0,0,0,0
3.285028,-1,0.3605264,0.311496,0.4004949,0,0,0,0,0,0,0,0,0,0,0,0,0,0,0,0,0,0.01330566,-1.263916,-0.3251953,0,0,0,0,0,0
3.290028,-1,0.3605264,0.3265346,0.3467326,0,0,0,0,0,0,0,0,0,0,0,0,0,0,0,0,0,-0.09802246,-1.179077,-0.08935547,0,0,0,0,0,0
3.295028,-1,0.3524597,0.3319639,0.3319639,0,0,0,0,0,0,0,0,0,0,0,0,0,0,0,0,0,-0.09606934,-1.136353,-0.1274414,0,0,0,0,0,0
3.300028,-1,0.3524597,0.3374314,0.317386,0,0,0,0,0,0,0,0,0,0,0,0,0,0,0,0,0,-0.09680176,-1.117676,-0.1573486,0,0,0,0,0,0
3.305028,-1,0.3283107,0.3429525,0.3029969,0,0,0,0,0,0,0,0,0,0,0,0,0,0,0,0,0,-0.06762695,-1.113892,-0.2562256,0,0,0,0,0,0
3.310028,-1,0.3202776,0.3498112,0.2965066,0,0,0,0,0,0,0,0,0,0,0,0,0,0,0,0,0,-0.03588867,-1.115112,-0.3178711,0,0,0,0,0,0
3.315028,-1,0.3042357,0.3498112,0.2965066,0,0,0,0,0,0,0,0,0,0,0,0,0,0,-0.0864604,0.01849153,0.05572448,-0.0111084,-1.040405,-0.329834,0,0,0,0,0,0
3.320029,-1,0.2962267,0.3498112,0.2965066,0,0,0,0,0,0,0,0,0,0,0,0,0,0,0,0,0,-0.003173828,-1.008301,-0.3288574,0,0,0,0,0,0
3.325029,-1,0.2802319,0.3498112,0.2965066,0,0,0,0,0,0,0,0,0,0,0,0,0,0,0,0,0,0.01867676,-1.012573,-0.3410645,0,0,0,0,0,0
3.330029,-1,0.2562958,0.3498112,0.2965066,0,0,0,0,0,0,0,0,0,0,0,0,0,0,-0.06989581,0.006228339,0.04152226,0.00390625,-0.9844971,-0.3393555,0,0,0,0,0,0
3.335029,-1,0.2403741,0.3579839,0.2977623,0,0,0,0,0,0,0,0,0,0,0,0,0,0,0,0,0,-0.01965332,-0.9608154,-0.3348389,0,0,0,0,0,0
3.340029,-1,0.2324234,0.3592274,0.3055111,0,0,0,0,0,0,0,0,0,0,0,0,0,0,0,0,0,-0.0222168,-0.967041,-0.3128662,0,0,0,0,0,0
3.345029,-1,0.2165419,0.3629129,0.3289958,0,0,0,0,0,0,0,0,0,0,0,0,0,0,-0.07346635,0.004248055,0.03373455,-0.09924316,-1.003052,-0.1921387,0,0,0,0,0,0
3.350029,-1,0.2086106,0.3757898,0.3619993,0,0,0,0,0,0,0,0,0,0,0,0,0,0,0,0,0,-0.1147461,-0.9973145,-0.2052002,0,0,0,0,0,0
3.355029,-1,0.1848525,0.4100441,0.4385689,0,0,0,0,0,0,0,0,0,0,0,0,0,0,-0.1229437,0.005497482,0.01949107,-0.1038818,-1.019165,-0.2490234,0,0,0,0,0,0
3.360029,-1,0.1848525,0.4414262,0.4997967,0,0,0,0,0,0,0,0,0,0,0,0,0,0,0,0,0,-0.116333,-0.9919434,-0.2655029,0,0,0,0,0,0
3.36503,-1,0.1690417,0.4723401,0.5616013,0,0,0,0,0,0,0,0,0,0,0,1,0,0,0,0,0,-0.1391602,-0.9394531,-0.2838135,0,0,0,0,0,0
3.37003,-1,0.1532514,0.5225083,0.6598098,0,0,0,0,0,0,0,0,0,0,0,1,0,0,-0.1453279,0.0004613585,-0.02053045,-0.08410645,-0.8758545,-0.3326416,0,0,0,0,0,0
3.37503,-1,0.1374799,0.5240499,0.6770572,0,0,0,0,0,0,0,0,0,0,0,1,0,0,0,0,0,-0.0423584,-0.8795166,-0.3460693,0,0,0,0,0,0
3.38003,-1,0.1217254,0.5248094,0.6856999,0,0,0,0,0,0,0,0,0,0,0,1,0,0,0,0,0,0.01306152,-0.9121094,-0.3453369,0,0,0,0,0,0
3.38503,-1,0.09812176,0.5248094,0.6856999,0,0,0,0,0,0,0,0,0,0,0,1,0,0,-0.1516805,-0.01224439,-0.06272127,0.07177734,-0.8588867,-0.3746338,0,0,0,0,0,0
3.39003,-1,0.09026043,0.5150486,0.6676555,0,0,0,0,0,0,0,0,0,0,0,1,0,0,0,0,0,0.04296875,-0.7891846,-0.3979492,0,0,0,0,0,0
3.39503,-1,0.07454614,0.4864636,0.6222209,0,0,0,0,0,0,0,0,0,0,0,1,0,0,0,0,0,0.03942871,-0.7747803,-0.4692383,0,0,0,0,0,0
3.40003,-1,0.02745281,0.4000333,0.486527,0,0,0,0,0,0,0,0,0,0,0,1,0,0,0,0,0,0.1149902,-0.8140869,-0.5362549,0,0,0,0,0,0
3.40503,-1,-0.003921574,0.3506597,0.4062097,0,0,0,0,0,0,0,0,0,0,0,1,0,0,0,0,0,0.1340332,-0.8166504,-0.59021,0,0,0,0,0,0
3.410031,-1,-0.07454614,0.2489189,0.2489189,0,0,0,0,0,0,0,0,0,0,0,1,0,0,-0.03623636,-0.04773203,-0.09571396,0.1573486,-0.7800293,-0.612915,0,0,0,0,0,0
3.415031,-1,-0.113854,0.2013773,0.1682741,0,0,0,0,0,0,0,0,0,0,0,1,0,0,0,0,0,0.1654053,-0.7781982,-0.6241455,0,0,0,0,0,0
3.420031,-1,-0.1453634,0.1547919,0.1071636,0,0,0,0,0,0,0,0,0,0,0,1,0,0,0,0,0,0.1739502,-0.8103027,-0.6124268,0,0,0,0,0,0
3.425031,-1,-0.2006854,0.09775042,0.01491108,0,0,0,0,0,0,0,0,0,0,0,1,0,0,0.0432302,-0.05497482,-0.06696933,0.1644287,-0.8922119,-0.4952393,0,0,0,0,0,0
3.430031,-1,-0.2244794,0.08653233,-0.001518111,0,0,0,0,0,0,0,0,0,0,0,1,0,0,0,0,0,0.164917,-0.8909912,-0.449585,0,0,0,0,0,0
3.435031,-1,-0.2642672,0.08866467,-0.01399968,0,0,0,0,0,0,0,0,0,0,0,1,0,0,0,0,0,0.06286621,-0.8441162,-0.4349365,0,0,0,0,0,0
3.440031,-0.9893057,-0.3034922,0.1056914,-0.05377283,0,0,0,0,0,0,0,0,0,0,0,1,0,0,0,0,0,0.1279297,-0.9864502,-0.34021,0,0,0,0,0,0
3.445031,-0.9904684,-0.3275254,0.1173333,-0.0802807,0,0,0,0,0,0,0,0,0,0,0,1,0,0,0,0,0,0.1481934,-1.000732,-0.331543,0,0,0,0,0,0
3.450032,-0.9821944,-0.3431763,0.1314626,-0.1176244,0,0,0,0,0,0,0,0,0,0,0,1,0,0,0,0,0,0.1553955,-0.9962158,-0.3320313,0,0,0,0,0,0
3.455032,-0.9739717,-0.3588317,0.1575176,-0.1842155,0,0,0,0,0,0,0,0,0,0,0,1,0,0,0,0,0,0.1185303,-0.9281006,-0.3649902,0,0,0,0,0,0
3.460032,-0.9744098,-0.366883,0.1666072,-0.2230843,0,0,0,0,0,0,0,0,0,0,0,1,0,0,0,0,0,0.07958984,-0.9349365,-0.3421631,0,0,0,0,0,0
3.465032,-0.9744098,-0.366883,0.1746964,-0.2635252,0,0,0,0,0,0,0,0,0,0,0,0,0,0,0.07704686,-0.007381736,0.02191453,0.02404785,-0.9249268,-0.296875,0,0,0,0,0,0
3.470032,-0.9744098,-0.366883,0.1746964,-0.2635252,0,0,0,0,0,0,0,0,0,0,0,0,0,0,0,0,0,-0.002075195,-0.8764648,-0.3114014,0,0,0,0,0,0
3.475032,-0.9744098,-0.366883,0.09851561,-0.1894531,0,0,0,0,0,0,0,0,0,0,0,0,0,0,0,0,0,-0.005615234,-0.8516846,-0.3121338,0,0,0,0,0,0
3.480032,-0.9744098,-0.366883,0,0,0,0,0,0,0,0,0,0,0,0,0,0,0,0,0.09495651,0.0007496566,0.01949107,0.004150391,-0.9713135,-0.3094482,0,0,0,0,0,0
3.485032,-0.9744098,-0.366883,0,0,0,0,0,0,0,0,0,0,0,0,0,0,0,0,0,0,0,0.0925293,-0.8491211,-0.4533691,0,0,0,0,0,0
3.490032,-0.9744098,-0.366883,0,0,0,0,0,0,0,0,0,0,0,0,0,0,0,0,0,0,0,-0.0333252,-0.9752197,-0.2458496,0,0,0,0,0,0
3.495033,-0.9744098,-0.366883,0,0,0,0,0,0,0,0,0,0,0,0,0,0,0,0,0,0,0,-0.05737305,-0.8748779,-0.3818359,0,0,0,0,0,0
3.500033,-0.9739717,-0.3588317,0,0,0,0,0,0,0,0,0,0,0,0,0,0,0,0,0,0,0,-0.01062012,-0.9460449,-0.3734131,0,0,0,0,0,0
3.505033,-0.9801954,-0.3031126,0,0,0,0,0,0,0,0,0,0,0,0,0,0,0,0,0.01268736,-0.02837355,0.03460189,0.03979492,-1.042725,-0.3045654,0,0,0,0,0,0
3.510033,-0.9882084,-0.2795331,0,0,0,0,0,0,0,0,0,0,0,0,0,0,0,0,0,0,0,-0.03942871,-1.047607,-0.2850342,0,0,0,0,0,0
3.515033,-0.996002,-0.2480163,0,0,0,0,0,0,0,0,0,0,0,0,0,0,0,0,0,0,0,-0.08129883,-1.079468,-0.3028564,0,0,0,0,0,0
3.520033,-1,-0.1927661,0,0,0,0,0,0,0,0,0,0,0,0,0,0,0,0,-0.04622883,-0.04722837,0.0657199,-0.04052734,-1.144531,-0.3253174,0,0,0,0,0,0
3.525033,-1,-0.1611441,0,0,0,0,0,0,0,0,0,0,0,0,0,0,0,0,0,0,0,-0.02502441,-1.131104,-0.3133545,0,0,0,0,0,0
3.530033,-1,-0.1217254,0,0,0,0,0,0,0,0,0,0,0,0,0,1,0,0,0,0,0,-0.04760742,-1.103149,-0.2949219,0,0,0,0,0,0
3.535033,-1,-0.04314433,0,0,0,0,0,0,0,0,0,0,0,0,0,1,0,0,0,0,0,-0.1193848,-1.045044,-0.229248,0,0,0,0,0,0
3.540034,-1,0.01176485,0,0,0,0,0,0,0,0,0,0,0,0,0,1,0,0,0,0,0,-0.1002197,-0.9360352,-0.2419434,0,0,0,0,0,0
3.545034,-1,0.05099206,0,0,0,0,0,0,0,0,0,0,0,0,0,1,0,0,0,0,0,-0.1193848,-0.4951172,-0.08654785,0,0,0,0,0,0
3.550034,-1,0.1217254,0,0,0,0,0,0,0,0,0,0,0,0,0,1,0,0,0,0,0,0.006225586,-0.5314941,-0.3493652,0,0,0,0,0,0
3.555034,-1,0.1611441,0,0,0,0,0,0,0,0,0,0,0,0,0,1,0,0,0,0,0,0.1164551,-0.7081299,-0.4207764,0,0,0,0,0,0
3.560034,-1,0.2165419,0,0,0,0,0,0,0,0,0,0,0,0,0,1,0,0,-0.02929368,-0.0207593,-0.0712736,0.1223145,-0.7425537,-0.6776123,0,0,0,0,0,0
3.565034,-1,0.2483314,0,0,0,0,0,0,0,0,0,0,0,0,0,1,0,0,0,0,0,0.0008544922,-0.8308105,-0.5446777,0,0,0,0,0,0
3.570034,-1,0.2722459,0.004560402,0.005654898,0,0,0,0,0,0,0,0,0,0,0,1,0,0,0,0,0,-0.01672363,-0.7845459,-0.5496826,0,0,0,0,0,0
3.575034,-1,0.3042357,0.05523647,0.03982164,0,0,0,0,0,0,0,0,0,0,0,1,0,0,0,0,0,0.05773926,-0.9091797,-0.4997559,0,0,0,0,0,0
3.580034,-1,0.3202776,0.09219412,0.05392486,0,0,0,0,0,0,0,0,0,0,0,1,0,0,0,0,0,0.07958984,-0.9372559,-0.5163574,0,0,0,0,0,0
3.585035,-1,0.3605264,0.1915462,0.077116,0,0,0,0,0,0,0,0,0,0,0,1,0,0,0.1172059,-0.06547534,-0.01649379,0.04431152,-0.9293213,-0.5145264,0,0,0,0,0,0
3.590035,-1,0.3766855,0.2527946,0.08611684,0,0,0,0,0,0,0,0,0,0,0,1,0,0,0,0,0,0.03820801,-0.9073486,-0.5036621,0,0,0,0,0,0
3.595035,-1,0.4009901,0.3151807,0.09305335,0,0,0,0,0,0,0,0,0,0,0,1,0,0,0,0,0,0.05712891,-0.8796387,-0.4919434,0,0,0,0,0,0
3.600035,-1,0.4416777,0.4690527,0.1046089,0,0,0,0,0,0,0,0,0,0,0,1,0,0,0.1580013,-0.0622779,0.02329655,0.105835,-0.9173584,-0.4158936,0,0,0,0,0,0
3.605035,-1,0.4743927,0.5599574,0.1021306,0,0,0,0,0,0,0,0,0,0,0,1,0,0,0,0,0,0.1241455,-0.9447021,-0.3920898,0,0,0,0,0,0
3.610035,-1,0.5072563,0.6791763,0.1064655,0,0,0,0,0,0,0,0,0,0,0,1,0,0,0,0,0,0.1447754,-0.9492188,-0.3804932,0,0,0,0,0,0
3.615035,-1,0.5806994,1,0.113854,0,0,0,0,0,0,0,0,0,0,0,1,0,0,0,0,0,0.171875,-0.9528809,-0.3712158,0,0,0,0,0,0
3.620035,-0.9900852,0.6213085,1,0.113854,0,0,0,0,0,0,0,0,0,0,0,1,0,0,0,0,0,-0.09472656,-0.9012451,-0.3791504,0,0,0,0,0,0
3.625036,-0.9426614,0.7019819,1,-0.01176485,0,0,0,0,0,0,0,0,0,0,0,1,0,0,0.1819167,-0.006996796,0.08071303,0.1020508,-0.9952393,-0.2811279,0,0,0,0,0,0
3.630036,-0.9023457,0.7499495,1,-0.08240198,0,0,0,0,0,0,0,0,0,0,0,1,0,0,0,0,0,0.1481934,-1.068848,-0.1385498,0,0,0,0,0,0
3.635036,-0.861815,0.7896631,1,-0.1296006,0,0,0,0,0,0,0,0,0,0,0,1,0,0,0,0,0,-0.01794434,-1.025757,-0.06359863,0,0,0,0,0,0
3.640036,-0.7578744,0.8942115,1,-0.1769445,0,0,0,0,0,0,0,0,0,0,0,1,0,0,0.06089395,0.01776074,0.07427216,-0.04431152,-1.133301,-0.1517334,0,0,0,0,0,0
3.645036,-0.7014025,0.9338674,1,-0.1927661,0,0,0,0,0,0,0,0,0,0,0,1,0,0,0,0,0,-0.06787109,-1.084229,-0.2143555,0,0,0,0,0,0
3.650036,-0.6453226,0.973996,1,-0.2086106,0,0,0,0,0,0,0,0,0,0,0,1,0,0,0,0,0,-0.06762695,-1.042114,-0.2990723,0,0,0,0,0,0
3.655036,-0.5563178,1,1,-0.2324234,0,0,0,0,0,0,0,0,0,0,0,0,0,0,0,0,0,-0.07836914,-1.006592,-0.3931885,0,0,0,0,0,0
3.660036,-0.523744,1,1,-0.2403741,0,0,0,0,0,0,0,0,0,0,0,0,0,0,0,0,0,-0.1308594,-1.016724,-0.3668213,0,0,0,0,0,0
3.665036,-0.4990265,1,1,-0.2483314,0,0,0,0,0,0,0,0,0,0,0,0,0,0,0,0,0,-0.1478271,-1.022949,-0.3630371,0,0,0,0,0,0
3.670037,-0.4825947,1,1,-0.2642672,0,0,0,0,0,0,0,0,0,0,0,0,0,0,0,0,0,-0.1005859,-0.9796143,-0.3890381,0,0,0,0,0,0
3.675037,-0.4825947,1,1,-0.2642672,0,0,0,0,0,0,0,0,0,0,0,0,0,0,0,0,0,-0.1021729,-0.9960938,-0.4395752,0,0,0,0,0,0
3.680037,-0.4825947,1,1,-0.2642672,0,0,0,0,0,0,0,0,0,0,0,0,0,0,0.01374259,-0.006746361,-0.02598598,-0.05285645,-0.9559326,-0.4187012,0,0,0,0,0,0
3.685037,-0.4825947,1,1,-0.2642672,0,0,0,0,0,0,0,0,0,0,0,0,0,0,0,0,0,-0.03747559,-0.9353027,-0.4210205,0,0,0,0,0,0
3.690037,-0.4825947,1,1,-0.2642672,0,0,0,0,0,0,0,0,0,0,0,0,0,0,0,0,0,-0.04089355,-0.9724121,-0.3961182,0,0,0,0,0,0
3.695037,-0.4825947,1,1,-0.2642672,0,0,0,0,0,0,0,0,0,0,0,0,0,0,0.008073061,-0.01245558,-0.02421918,-0.03491211,-1.042358,-0.3690186,0,0,0,0,0,0
3.700037,-0.4825947,1,1,-0.2642672,0,0,0,0,0,0,0,0,0,0,0,0,0,0,0,0,0,-0.01855469,-1.069092,-0.369751,0,0,0,0,0,0
3.705037,-0.4825947,1,1,-0.2642672,0,0,0,0,0,0,0,0,0,0,0,0,0,0,0,0,0,-0.02001953,-1.077759,-0.3575439,0,0,0,0,0,0
3.710037,-0.4825947,1,1,-0.2562958,0,0,0,0,0,0,0,0,0,0,0,0,0,0,0,0,0,0.02087402,-1.118896,-0.3531494,0,0,0,0,0,0
3.715038,-0.4825947,1,1,-0.2483314,0,0,0,0,0,0,0,0,0,0,0,0,0,0,0,0,0,0.03161621,-1.105591,-0.3409424,0,0,0,0,0,0
3.720038,-0.4825947,1,1,-0.2403741,0,0,0,0,0,0,0,0,0,0,0,0,0,0,0,0,0,0.005859375,-1.132324,-0.2619629,0,0,0,0,0,0
3.725038,-0.4825947,1,1,-0.2006854,0,0,0,0,0,0,0,0,0,0,0,1,0,0,0,0,0,-0.03820801,-1.119873,-0.1628418,0,0,0,0,0,0
3.730038,-0.4825947,1,1,-0.1611441,0,0,0,0,0,0,0,0,0,0,0,1,0,0,0,0,0,-0.03308105,-1.233887,-0.1420898,0,0,0,0,0,0
3.735038,-0.4825947,1,1,-0.04314433,0,0,0,0,0,0,0,0,0,0,0,1,0,0,-0.1953681,0.04497848,-0.002306589,-0.0982666,-1.052368,-0.01672363,0,0,0,0,0,0
3.740038,-0.4825947,1,1,0.035298,0,0,0,0,0,0,0,0,0,0,0,1,0,0,0,0,0,-0.1617432,-0.9484863,-0.1026611,0,0,0,0,0,0
3.745038,-0.4825947,1,1,0.1059862,0,0,0,0,0,0,0,0,0,0,0,1,0,0,0,0,0,-0.06958008,-1.068115,-0.2056885,0,0,0,0,0,0
3.750038,-0.4825947,1,1,0.2244794,0,0,0,0,0,0,0,0,0,0,0,1,0,0,-0.172685,0.06172676,-0.02798946,0.1158447,-0.928833,-0.479248,0,0,0,0,0,0
3.755038,-0.4825947,1,1,0.2882255,0,0,0,0,0,0,0,0,0,0,0,1,0,0,-0.1581389,0.03522526,-0.04421894,0.1488037,-0.848999,-0.5806885,0,0,0,0,0,0
3.760039,-0.4825947,1,0.9929715,0.3758259,0,0,0,0,0,0,0,0,0,0,0,1,0,0,-0.09395697,-0.02049061,-0.08396155,0.05737305,-0.7922363,-0.505127,0,0,0,0,0,0
3.765039,-0.4825947,1,0.9943026,0.4000978,0,0,0,0,0,0,0,0,0,0,0,1,0,1,0,0,0,0.04321289,-0.8045654,-0.4737549,0,0,0,0,0,0
3.770039,-0.4825947,1,0.9952164,0.4163256,0,0,0,0,0,0,0,0,0,0,0,1,0,1,-0.03448421,-0.01849153,-0.08346178,0.0423584,-0.8083496,-0.4667969,0,0,0,0,0,0
3.775039,-0.4825947,1,0.9952164,0.4163256,0,0,0,0,0,0,0,0,0,0,0,1,0,1,0,0,0,0.03503418,-0.8175049,-0.4355469,0,0,0,0,0,0
3.780039,-0.4825947,1,0.9952164,0.4163256,0,0,0,0,0,0,0,0,0,0,0,1,0,1,0,0,0,0.03967285,-0.828125,-0.4619141,0,0,0,0,0,0
3.785039,-0.4825947,1,0.9952164,0.4163256,0,0,0,0,0,0,0,0,0,0,0,1,0,1,0.03398444,-0.01524302,-0.06347093,0.04931641,-0.8255615,-0.4665527,0,0,0,0,0,0
3.790039,-0.4825947,1,0.9952164,0.4163256,0,0,0,0,0,0,0,0,0,0,0,1,0,1,0,0,0,0.04589844,-0.8338623,-0.4383545,0,0,0,0,0,0
3.795039,-0.4825947,1,0.9952164,0.4163256,0,0,0,0,0,0,0,0,0,0,0,1,0,1,0.05272585,-0.01824165,-0.05172631,0.04968262,-0.8770752,-0.427002,0,0,0,0,0,0
3.80004,-0.4908059,1,0.9952164,0.4163256,0,0,0,0,0,0,0,0,0,0,0,1,0,1,0,0,0,0.0423584,-0.8725586,-0.4031982,0,0,0,0,0,0
3.80504,-0.4908059,1,0.9952164,0.4163256,0,0,0,0,0,0,0,0,0,0,0,1,0,1,0,0,0,0.03979492,-0.8723145,-0.3798828,0,0,0,0,0,0
3.81004,-0.4908059,1,1,0.4167845,0,0,0,0,0,0,0,0,0,0,0,1,0,1,0.05847798,-0.0009996236,-0.02249153,0.0736084,-0.8726807,-0.3729248,0,0,0,0,0,0
3.81504,-0.4908059,1,1,0.4167845,0,0,0,0,0,0,0,0,0,0,0,1,0,1,0,0,0,0.07226563,-0.8636475,-0.3668213,0,0,0,0,0,0
3.82004,-0.4908059,1,1,0.4086611,0,0,0,0,0,0,0,0,0,0,0,1,0,1,0,0,0,0.0579834,-0.8579102,-0.3569336,0,0,0,0,0,0
3.82504,-0.4908059,1,1,0.3847782,0,0,0,0,0,0,0,0,0,0,0,1,0,1,0,0,0,0.05224609,-0.8702393,-0.3728027,0,0,0,0,0,0
3.83004,-0.4908059,1,1,0.3766855,0,0,0,0,0,0,0,0,0,0,0,1,0,1,0,0,0,0.05187988,-0.8812256,-0.3765869,0,0,0,0,0,0
3.83504,-0.4908059,1,1,0.336352,0,0,0,0,0,0,0,0,0,0,0,1,0,1,0.08995697,0.0207593,0.0006919767,0.04064941,-0.8806152,-0.3890381,0,0,0,0,0,0
3.84004,-0.4908059,1,1,0.3202776,0,0,0,0,0,0,0,0,0,0,0,1,0,1,0,0,0,0.0402832,-0.8859863,-0.4072266,0,0,0,0,0,0
3.845041,-0.4908059,1,1,0.2962267,0,0,0,0,0,0,0,0,0,0,0,1,0,1,0,0,0,0.03845215,-0.8770752,-0.4205322,0,0,0,0,0,0
3.850041,-0.5072563,1,1,0.2403741,0,0,0,0,0,0,0,0,0,0,0,1,0,1,0.1219442,0.01249428,-0.005247597,0.008178711,-0.878418,-0.4217529,0,0,0,0,0,0
3.855041,-0.523744,1,1,0.2165419,0,0,0,0,0,0,0,0,0,0,0,1,0,1,0,0,0,-0.002929688,-0.8917236,-0.4222412,0,0,0,0,0,0
3.860041,-0.540269,1,1,0.1927661,0,0,0,0,0,0,0,0,0,0,0,1,0,1,0,0,0,-0.005126953,-0.9179688,-0.4051514,0,0,0,0,0,0
3.865041,-0.5890183,1,1,0.1374799,0,0,0,0,0,0,0,0,0,0,0,1,0,1,0.1236332,0.003459883,-0.02052864,-0.01330566,-0.8977051,-0.3547363,0,0,0,0,0,0
3.870041,-0.6134956,0.9984341,1,0.113854,0,0,0,0,0,0,0,0,0,0,0,1,0,1,0,0,0,-0.046875,-0.8723145,-0.3339844,0,0,0,0,0,0
3.875041,-0.6374958,0.9823048,1,0.09026043,0,0,0,0,0,0,0,0,0,0,0,1,0,1,0,0,0,-0.03039551,-0.8931885,-0.3847656,0,0,0,0,0,0
3.880041,-0.6850963,0.9415066,1,0.02745281,0,0,0,0,0,0,0,0,0,0,0,1,0,1,0.1754339,0.003248777,-0.01399473,0.04382324,-0.9572754,-0.3979492,0,0,0,0,0,0
3.885041,-0.7008187,0.9250807,1,-0.003921574,0,0,0,0,0,0,0,0,0,0,0,1,0,1,0,0,0,0.05480957,-0.9401855,-0.4068604,0,0,0,0,0,0
3.890042,-0.7238518,0.8918174,1,-0.02745281,0,0,0,0,0,0,0,0,0,0,0,1,0,0,0,0,0,0.01062012,-0.9683838,-0.3666992,0,0,0,0,0,0
3.895042,-0.7798811,0.8438712,1,-0.07454614,0,0,0,0,0,0,0,0,0,0,0,1,0,0,0.1631753,-0.0007496566,0.003998169,0.03515625,-1.019043,-0.2989502,0,0,0,0,0,0
3.900042,-0.8031714,0.8111632,1,-0.09026043,0,0,0,0,0,0,0,0,0,0,0,0,0,0,0,0,0,0.07873535,-1.09314,-0.2478027,0,0,0,0,0,0
3.905042,-0.8426419,0.7627706,1,-0.1217254,0,0,0,0,0,0,0,0,0,0,0,0,0,0,0.1129483,0.0009995422,-0.003748283,0.003662109,-1.032837,-0.2685547,0,0,0,0,0,0
3.910042,-0.8581596,0.7384164,1,-0.1217254,0,0,0,0,0,0,0,0,0,0,0,0,0,0,0,0,0,0.004638672,-1.138672,-0.2305908,0,0,0,0,0,0
3.915042,-0.8656361,0.7220283,1,-0.1296006,0,0,0,0,0,0,0,0,0,0,0,0,0,0,0,0,0,0.009521484,-1.090454,-0.3049316,0,0,0,0,0,0
3.920042,-0.8975631,0.682148,1,-0.1374799,0,0,0,0,0,0,0,0,0,0,0,0,0,0,0.04547917,0.02149016,-0.02149016,-0.01623535,-0.960083,-0.2382813,0,0,0,0,0,0
3.925042,-0.9051422,0.6658976,1,-0.1374799,0,0,0,0,0,0,0,0,0,0,0,0,0,0,0,0,0,0.004150391,-0.9963379,-0.2613525,0,0,0,0,0,0
3.930043,-0.9121541,0.6412961,1,-0.1374799,0,0,0,0,0,0,0,0,0,0,0,0,0,0,0,0,0,0.01989746,-1.052368,-0.270752,0,0,0,0,0,0
3.935043,-0.9357346,0.6012593,1,-0.1374799,0,0,0,0,0,0,0,0,0,0,0,0,0,0,0,0,0,0.04833984,-1.057739,-0.3155518,0,0,0,0,0,0
3.940043,-0.9428936,0.5768758,1,-0.1374799,0,0,0,0,0,0,0,0,0,0,0,0,0,0,0,0,0,0.05737305,-1.032593,-0.2973633,0,0,0,0,0,0
3.945043,-0.9501057,0.552572,1,-0.1374799,0,0,0,0,0,0,0,0,0,0,0,0,0,0,0,0,0,0.06518555,-1.050659,-0.2646484,0,0,0,0,0,0
3.950043,-0.9652384,0.5124105,1,-0.1374799,0,0,0,0,0,0,0,0,0,0,0,0,0,0,0.005536302,0.0256054,-0.01730094,0.01464844,-1.135742,-0.204834,0,0,0,0,0,0
3.955043,-0.9731412,0.4965006,1,-0.1453634,0,0,0,0,0,0,0,0,0,0,0,0,0,0,0,0,0,0.004638672,-1.131714,-0.2233887,0,0,0,0,0,0
3.960043,-0.9715978,0.4719189,1,-0.1453634,0,0,0,0,0,0,0,0,0,0,0,0,0,0,-0.05858736,0.02421918,-0.006689108,0.0526123,-1.126953,-0.2371826,0,0,0,0,0,0
3.965043,-0.9800786,0.4642477,1,-0.1374799,0,0,0,0,0,0,0,0,0,0,0,0,0,0,0,0,0,0.07104492,-1.107178,-0.2546387,0,0,0,0,0,0
3.970043,-0.9795809,0.4560802,1,-0.1374799,0,0,0,0,0,0,0,0,0,0,0,1,0,0,0,0,0,0.06347656,-1.055176,-0.2631836,0,0,0,0,0,0
3.975044,-0.9795809,0.4560802,1,-0.1374799,0,0,0,0,0,0,0,0,0,0,0,1,0,0,-0.1077007,0.01874142,-0.007496567,0.01208496,-1.071289,-0.19104,0,0,0,0,0,0
3.980044,-0.9795809,0.4560802,1,-0.1296006,0,0,0,0,0,0,0,0,0,0,0,1,0,0,0,0,0,0.01745605,-1.103149,-0.1879883,0,0,0,0,0,0
3.985044,-0.9795809,0.4560802,1,-0.113854,0,0,0,0,0,0,0,0,0,0,0,1,0,0,0,0,0,0.03198242,-1.025513,-0.2393799,0,0,0,0,0,0
3.990044,-0.9795809,0.4560802,1,-0.07454614,0,0,0,0,0,0,0,0,0,0,0,1,0,0,0,0,0,-0.03601074,-0.8769531,-0.2297363,0,0,0,0,0,0
3.995044,-0.9795809,0.4560802,1,-0.05099206,0,0,0,0,0,0,0,0,0,0,0,1,0,0,0,0,0,-0.02844238,-0.9361572,-0.3518066,0,0,0,0,0,0
4.000044,-0.9795809,0.4560802,1,-0.01960851,0,0,0,0,0,0,0,0,0,0,0,1,0,0,-0.09849135,0.01545415,-0.02721775,0.07177734,-0.8476563,-0.4812012,0,0,0,0,0,0
4.005044,-0.9795809,0.4560802,1,-0.003921574,0,0,0,0,0,0,0,0,0,0,0,1,0,0,0,0,0,0.07946777,-0.8094482,-0.5406494,0,0,0,0,0,0
4.010044,-0.9795809,0.4560802,1,0.01176485,0,0,0,0,0,0,0,0,0,0,0,1,0,0,0,0,0,0.0880127,-0.7828369,-0.5924072,0,0,0,0,0,0
4.015044,-0.987129,0.4321167,1,0.01960851,0,0,0,0,0,0,0,0,0,0,0,1,0,0,-0.003748589,-0.02224163,-0.0382356,0.04309082,-0.7585449,-0.56604,0,0,0,0,0,0
4.020044,-0.9861843,0.4158609,1,0.01960851,0,0,0,0,0,0,0,0,0,0,0,1,0,0,0,0,0,0.02819824,-0.7883301,-0.5102539,0,0,0,0,0,0
4.025044,-1,0.360111,1,0.01960851,0,0,0,0,0,0,0,0,0,0,0,1,0,0,0.06821876,0.001249428,-0.0224897,0.0546875,-0.8723145,-0.3999023,0,0,0,0,0,0
4.030045,-1,0.3359554,1,0.01960851,0,0,0,0,0,0,0,0,0,0,0,1,0,0,0,0,0,0.09008789,-0.9188232,-0.3348389,0,0,0,0,0,0
4.035045,-1,0.3042357,1,0.01176485,0,0,0,0,0,0,0,0,0,0,0,1,0,0,0,0,0,0.08605957,-0.9296875,-0.2766113,0,0,0,0,0,0
4.040045,-1,0.2642672,1,-0.01176485,0,0,0,0,0,0,0,0,0,0,0,1,0,0,0.0569739,0.01749199,-0.005247597,0.0880127,-1.047607,-0.2259521,0,0,0,0,0,0
4.045045,-1,0.2403741,1,-0.02745281,0,0,0,0,0,0,0,0,0,0,0,1,0,0,0,0,0,0.09191895,-1.021973,-0.2180176,0,0,0,0,0,0
4.050045,-1,0.2165419,1,-0.035298,0,0,0,0,0,0,0,0,0,0,0,1,0,0,0,0,0,0.07409668,-0.9749756,-0.2392578,0,0,0,0,0,0
4.055045,-1,0.1769445,1,-0.05099206,0,0,0,0,0,0,0,0,0,0,0,1,0,0,0.03123569,0.02848695,0.002498855,0.08496094,-0.8964844,-0.3389893,0,0,0,0,0,0
4.060045,-1,0.1532514,1,-0.06669273,0,0,0,0,0,0,0,0,0,0,0,1,0,0,0,0,0,0.09765625,-0.8413086,-0.3916016,0,0,0,0,0,0
4.065045,-1,0.09812176,1,-0.09812176,0,0,0,0,0,0,0,0,0,0,0,1,0,0,0.06946818,0.02348924,-0.01399359,0.04309082,-0.8945313,-0.385498,0,0,0,0,0,0
4.070045,-1,0.07454614,1,-0.113854,0,0,0,0,0,0,0,0,0,0,0,1,0,0,0,0,0,0.0279541,-0.9200439,-0.3695068,0,0,0,0,0,0
4.075046,-1,0.04314433,1,-0.1296006,0,0,0,0,0,0,0,0,0,0,0,0,0,0,0,0,0,-0.001708984,-0.9486084,-0.3309326,0,0,0,0,0,0
4.080046,-1,-0.01176485,1,-0.1453634,0,0,0,0,0,0,0,0,0,0,0,0,0,0,0,0,0,-0.03112793,-1.020508,-0.2720947,0,0,0,0,0,0
4.085046,-1,-0.04314433,1,-0.1532514,0,0,0,0,0,0,0,0,0,0,0,0,0,0,0,0,0,0.002685547,-1.042847,-0.2684326,0,0,0,0,0,0
4.090046,-1,-0.06669273,1,-0.1532514,0,0,0,0,0,0,0,0,0,0,0,0,0,0,0,0,0,0.03613281,-1.018311,-0.2709961,0,0,0,0,0,0
4.095046,-1,-0.1059862,1,-0.1532514,0,0,0,0,0,0,0,0,0,0,0,0,0,0,0,0,0,0.06335449,-1.016968,-0.2687988,0,0,0,0,0,0
4.100046,-1,-0.113854,1,-0.1532514,0,0,0,0,0,0,0,0,0,0,0,0,0,0,0,0,0,0.08154297,-1.04187,-0.2772217,0,0,0,0,0,0
4.105046,-1,-0.1296006,1,-0.1532514,0,0,0,0,0,0,0,0,0,0,0,0,0,0,-0.02906302,0.03136961,-0.03644411,0.0378418,-1.043335,-0.2750244,0,0,0,0,0,0
4.110046,-1,-0.1296006,1,-0.1532514,0,0,0,0,0,0,0,0,0,0,0,0,0,0,0,0,0,0.04467773,-1.03479,-0.2828369,0,0,0,0,0,0
4.115047,-1,-0.1296006,1,-0.1532514,0,0,0,0,0,0,0,0,0,0,0,0,0,0,0,0,0,0.06542969,-1.031372,-0.2904053,0,0,0,0,0,0
4.120047,-1,-0.1296006,1,-0.1453634,0,0,0,0,0,0,0,0,0,0,0,1,0,0,-0.06147185,0.02648787,-0.03823249,0.05871582,-1.016846,-0.2963867,0,0,0,0,0,0
4.125047,-1,-0.1296006,1,-0.1453634,0,0,0,0,0,0,0,0,0,0,0,1,0,0,0,0,0,0.05554199,-0.9777832,-0.310791,0,0,0,0,0,0
4.130047,-1,-0.1296006,1,-0.1374799,0,0,0,0,0,0,0,0,0,0,0,1,0,0,0,0,0,0.05664063,-0.9150391,-0.3380127,0,0,0,0,0,0
4.135047,-1,-0.1296006,1,-0.1217254,0,0,0,0,0,0,0,0,0,0,0,1,0,0,0,0,0,0.05065918,-0.842041,-0.4334717,0,0,0,0,0,0
4.140047,-1,-0.1296006,1,-0.1059862,0,0,0,0,0,0,0,0,0,0,0,1,0,0,0,0,0,0.0291748,-0.8319092,-0.4954834,0,0,0,0,0,0
4.145047,-1,-0.1296006,1,-0.09026043,0,0,0,0,0,0,0,0,0,0,0,1,0,0,0.02952694,-0.01545551,-0.08973423,0.01428223,-0.8214111,-0.5090332,0,0,0,0,0,0
4.150047,-1,-0.1296006,1,-0.09026043,0,0,0,0,0,0,0,0,0,0,0,1,0,0,0,0,0,0.015625,-0.8366699,-0.4796143,0,0,0,0,0,0
4.155047,-1,-0.1296006,1,-0.08240198,0,0,0,0,0,0,0,0,0,0,0,1,0,0,0,0,0,0.0345459,-0.8533936,-0.449585,0,0,0,0,0,0
4.160048,-1,-0.1296006,1,-0.08240198,0,0,0,0,0,0,0,0,0,0,0,1,0,0,0.09395697,-0.001499313,-0.09920457,0.0604248,-0.8748779,-0.3901367,0,0,0,0,0,0
4.165048,-1,-0.1296006,1,-0.08240198,0,0,0,0,0,0,0,0,0,0,0,1,0,0,0,0,0,0.05383301,-0.8729248,-0.3424072,0,0,0,0,0,0
4.170048,-1,-0.1296006,1,-0.08240198,0,0,0,0,0,0,0,0,0,0,0,1,0,0,0,0,0,0.05310059,-0.8980713,-0.3310547,0,0,0,0,0,0
4.175048,-1,-0.1374799,1,-0.08240198,0,0,0,0,0,0,0,0,0,0,0,1,0,0,0.1186956,0.02573821,-0.07396612,0.08740234,-0.951416,-0.2824707,0,0,0,0,0,0
4.180048,-1,-0.1453634,1,-0.08240198,0,0,0,0,0,0,0,0,0,0,0,1,0,0,0,0,0,0.1016846,-0.9558105,-0.2703857,0,0,0,0,0,0
4.185048,-1,-0.1453634,1,-0.08240198,0,0,0,0,0,0,0,0,0,0,0,1,0,0,0,0,0,0.1188965,-0.9465332,-0.2652588,0,0,0,0,0,0
4.190048,-1,-0.1453634,1,-0.08240198,0,0,0,0,0,0,0,0,0,0,0,1,0,0,0,0,0,0.1064453,-0.9221191,-0.256958,0,0,0,0,0,0
4.195048,-1,-0.1453634,1,-0.08240198,0,0,0,0,0,0,0,0,0,0,0,1,0,0,0,0,0,0.1138916,-0.9212646,-0.2602539,0,0,0,0,0,0
4.200048,-1,-0.1453634,1,-0.08240198,0,0,0,0,0,0,0,0,0,0,0,1,0,0,0,0,0,0.114624,-0.8796387,-0.2606201,0,0,0,0,0,0
4.205049,-1,-0.1453634,1,-0.08240198,0,0,0,0,0,0,0,0,0,0,0,0,0,0,0,0,0,0.09509277,-0.8599854,-0.2613525,0,0,0,0,0,0
4.210049,-1,-0.1453634,1,-0.08240198,0,0,0,0,0,0,0,0,0,0,0,0,0,0,0,0,0,0.08081055,-0.885376,-0.2568359,0,0,0,0,0,0
4.215049,-1,-0.1453634,1,-0.08240198,0,0,0,0,0,0,0,0,0,0,0,0,0,0,0,0,0,0.06518555,-0.9206543,-0.2524414,0,0,0,0,0,0
4.220049,-1,-0.1453634,1,-0.08240198,0,0,0,0,0,0,0,0,0,0,0,0,0,0,0,0,0,0.04724121,-0.9395752,-0.2468262,0,0,0,0,0,0
4.225049,-1,-0.1296006,1,-0.08240198,0,0,0,0,0,0,0,0,0,0,0,0,0,0,0,0,0,0.04272461,-0.9519043,-0.2268066,0,0,0,0,0,0
4.230049,-1,-0.113854,1,-0.08240198,0,0,0,0,0,0,0,0,0,0,0,0,0,0,0.1194813,0.05420484,-0.0403653,0.05627441,-0.9880371,-0.1685791,0,0,0,0,0,0
4.235049,-1,-0.09812176,1,-0.07454614,0,0,0,0,0,0,0,0,0,0,0,0,0,0,0.1186956,0.06347093,-0.04198077,0.09118652,-1.043945,-0.1472168,0,0,0,0,0,0
4.240049,-1,-0.035298,1,-0.01176485,0,0,0,0,0,0,0,0,0,0,0,1,0,0,0.03823249,0.07196704,-0.03598352,0.01721191,-1.148926,-0.1220703,0,0,0,0,0,0
4.245049,-1,-0.01960851,1,0.01960851,0,0,0,0,0,0,0,0,0,0,0,1,0,0,0,0,0,0.02734375,-1.134155,-0.1286621,0,0,0,0,0,0
4.25005,-1,0.02745281,1,0.09812176,0,0,0,0,0,0,0,0,0,0,0,1,0,0,-0.0639707,0.06322104,-0.04897757,0.07458496,-1.162354,-0.1572266,0,0,0,0,0,0
4.25505,-1,0.05099206,1,0.1374799,0,0,0,0,0,0,0,0,0,0,0,1,0,0,0,0,0,0.111084,-1.155884,-0.1970215,0,0,0,0,0,0
4.26005,-1,0.06669273,1,0.1769445,0,0,0,0,0,0,0,0,0,0,0,1,0,0,0,0,0,0.1275635,-1.144897,-0.239624,0,0,0,0,0,0
4.26505,-1,0.09812176,1,0.2403741,0,0,0,0,0,0,0,0,0,0,0,1,0,0,-0.1361876,0.0224897,-0.0709675,0.1290283,-1.084351,-0.2528076,0,0,0,0,0,0
4.27005,-1,0.113854,0.9973364,0.2798849,0,0,0,0,0,0,0,0,0,0,0,1,0,0,0,0,0,0.1179199,-0.9993896,-0.2009277,0,0,0,0,0,0
4.27505,-1,0.1217254,0.9896863,0.3114949,0,0,0,0,0,0,0,0,0,0,0,1,0,0,0,0,0,0.1113281,-0.9902344,-0.3461914,0,0,0,0,0,0
4.28005,-1,0.1296006,0.9744098,0.366883,0,0,0,0,0,0,0,0,0,0,0,1,0,0,-0.0804697,-0.0007497177,-0.09121566,0.1826172,-0.9672852,-0.4807129,0,0,0,0,0,0
4.28505,-1,0.1296006,0.9667169,0.3906326,0,0,0,0,0,0,0,0,0,0,0,1,0,0,0,0,0,0.2047119,-0.9395752,-0.5549316,0,0,0,0,0,0
4.290051,-1,0.1296006,0.9671836,0.3987165,0,0,0,0,0,0,0,0,0,0,0,1,0,0,0,0,0,0.2034912,-0.9306641,-0.5649414,0,0,0,0,0,0
4.295051,-1,0.1296006,0.9676555,0.4068103,0,0,0,0,0,0,0,0,0,0,0,1,0,0,0,0,0,0.1691895,-0.9418945,-0.4803467,0,0,0,0,0,0
4.300051,-1,0.1296006,0.9676555,0.4068103,0,0,0,0,0,0,0,0,0,0,0,1,0,0,0,0,0,0.166748,-0.9385986,-0.3952637,0,0,0,0,0,0
4.305051,-1,0.09812176,0.9676555,0.4068103,0,0,0,0,0,0,0,0,0,0,0,1,0,0,0.05747368,-0.008246223,-0.02923661,0.1740723,-0.9287109,-0.2475586,0,0,0,0,0,0
4.310051,-1,0.08240198,0.9667169,0.3906326,0,0,0,0,0,0,0,0,0,0,0,1,0,0,0,0,0,0.1846924,-0.9819336,-0.1899414,0,0,0,0,0,0
4.315051,-1,0.07454614,0.9744098,0.366883,0,0,0,0,0,0,0,0,0,0,0,1,0,0,0,0,0,0.2248535,-1.049683,-0.1724854,0,0,0,0,0,0
4.320051,-1,0.06669273,1,0.3122526,0,0,0,0,0,0,0,0,0,0,0,1,0,0,0,0,0,0.2421875,-0.9874268,-0.203125,0,0,0,0,0,0
4.325051,-1,0.06669273,1,0.2802319,0,0,0,0,0,0,0,0,0,0,0,1,0,0,0,0,0,0.2169189,-0.9705811,-0.2227783,0,0,0,0,0,0
4.330051,-1,0.06669273,1,0.2165419,0,0,0,0,0,0,0,0,0,0,0,1,0,0,0.02973638,0.02898672,0.04372997,0.1679688,-0.9105225,-0.2875977,0,0,0,0,0,0
4.335052,-1,0.06669273,1,0.1848525,0,0,0,0,0,0,0,0,0,0,0,1,0,0,0,0,0,0.1677246,-0.864624,-0.2965088,0,0,0,0,0,0
4.340052,-1,0.06669273,1,0.1532514,0,0,0,0,0,0,0,0,0,0,0,1,0,0,0,0,0,0.1580811,-0.8242188,-0.303833,0,0,0,0,0,0
4.345052,-1,0.06669273,1,0.09026043,0,0,0,0,0,0,0,0,0,0,0,1,0,0,0,0,0,0.1278076,-0.824707,-0.3059082,0,0,0,0,0,0
4.350052,-1,0.06669273,1,0.05099206,0,0,0,0,0,0,0,0,0,0,0,0,0,0,0,0,0,0.1184082,-0.8308105,-0.3022461,0,0,0,0,0,0
4.355052,-1,0.06669273,1,-0.02745281,0,0,0,0,0,0,0,0,0,0,0,0,0,0,0.07971999,0.03848551,0.03473692,0.09716797,-0.8813477,-0.2556152,0,0,0,0,0,0
4.360052,-1,0.06669273,1,-0.06669273,0,0,0,0,0,0,0,0,0,0,0,0,0,0,0,0,0,0.08569336,-0.9006348,-0.2479248,0,0,0,0,0,0
4.365052,-1,0.06669273,1,-0.113854,0,0,0,0,0,0,0,0,0,0,0,0,0,0,0,0,0,0.0670166,-0.9268799,-0.236084,0,0,0,0,0,0
4.370052,-1,0.06669273,1,-0.1769445,0,0,0,0,0,0,0,0,0,0,0,0,0,0,0.04198362,0.04498245,0.02468268,0.006591797,-1.023071,-0.1812744,0,0,0,0,0,0
4.375052,-1,0.06669273,1,-0.2086106,0,0,0,0,0,0,0,0,0,0,0,0,0,0,0,0,0,0.008178711,-1.042603,-0.1577148,0,0,0,0,0,0
4.380053,-1,0.06669273,1,-0.2324234,0,0,0,0,0,0,0,0,0,0,0,0,0,0,0,0,0,0.005249023,-1.048706,-0.1430664,0,0,0,0,0,0
4.385053,-1,0.06669273,1,-0.2562958,0,0,0,0,0,0,0,0,0,0,0,0,0,0,0,0,0,0.008178711,-1.112549,-0.1517334,0,0,0,0,0,0
4.390053,-1,0.07454614,1,-0.2562958,0,0,0,0,0,0,0,0,0,0,0,0,0,0,0,0,0,0.0447998,-1.119995,-0.1734619,0,0,0,0,0,0
4.395053,-1,0.09026043,1,-0.2642672,0,0,0,0,0,0,0,0,0,0,0,0,0,0,-0.1096998,0.03298489,-0.01849153,0.09521484,-1.02771,-0.2409668,0,0,0,0,0,0
4.400053,-1,0.09812176,1,-0.2642672,0,0,0,0,0,0,0,0,0,0,0,0,0,0,0,0,0,0.1103516,-1.010254,-0.2607422,0,0,0,0,0,0
4.405053,-1,0.1059862,1,-0.2642672,0,0,0,0,0,0,0,0,0,0,0,0,0,0,0,0,0,0.1080322,-1.025757,-0.2814941,0,0,0,0,0,0
4.410053,-1,0.113854,1,-0.2642672,0,0,0,0,0,0,0,0,0,0,0,0,0,0,0,0,0,0.1008301,-1.00415,-0.309082,0,0,0,0,0,0
4.415053,-1,0.113854,1,-0.2642672,0,0,0,0,0,0,0,0,0,0,0,0,0,0,0,0,0,0.0904541,-0.994873,-0.3128662,0,0,0,0,0,0
4.420053,-1,0.113854,1,-0.2562958,0,0,0,0,0,0,0,0,0,0,0,1,0,0,-0.08696608,-0.01707026,-0.07820026,0.0949707,-1.019653,-0.3186035,0,0,0,0,0,0
4.425054,-1,0.113854,1,-0.2562958,0,0,0,0,0,0,0,0,0,0,0,1,0,0,0,0,0,0.1077881,-1.006714,-0.3293457,0,0,0,0,0,0
4.430054,-1,0.113854,1,-0.2562958,0,0,0,0,0,0,0,0,0,0,0,1,0,0,0,0,0,0.1090088,-0.9846191,-0.3433838,0,0,0,0,0,0
4.435054,-1,0.113854,1,-0.2483314,0,0,0,0,0,0,0,0,0,0,0,1,0,0,-0.08621052,-0.02523844,-0.1099496,0.09069824,-0.9835205,-0.3597412,0,0,0,0,0,0
4.440054,-1,0.09812176,1,-0.2403741,0,0,0,0,0,0,0,0,0,0,0,1,0,0,0,0,0,0.09643555,-0.9881592,-0.3731689,0,0,0,0,0,0
4.445054,-1,0.08240198,1,-0.2403741,0,0,0,0,0,0,0,0,0,0,0,1,0,0,0,0,0,0.1123047,-0.9804688,-0.3883057,0,0,0,0,0,0
4.450054,-1,0.02745281,1,-0.2403741,0,0,0,0,0,0,0,0,0,0,0,1,0,0,0,0,0,0.1414795,-0.9938965,-0.4256592,0,0,0,0,0,0
4.455054,-1,-0.003921574,1,-0.2403741,0,0,0,0,0,0,0,0,0,0,0,1,0,0,0,0,0,0.1553955,-0.9880371,-0.4361572,0,0,0,0,0,0
4.460054,-1,-0.08240198,1,-0.2403741,0,0,0,0,0,0,0,0,0,0,0,1,0,0,-0.05123071,0.01124577,-0.0464825,0.1540527,-1.005249,-0.3793945,0,0,0,0,0,0
4.465055,-1,-0.113854,1,-0.2403741,0,0,0,0,0,0,0,0,0,0,0,1,0,0,0,0,0,0.1807861,-1.02478,-0.3637695,0,0,0,0,0,0
4.470055,-1,-0.1453634,1,-0.2403741,0,0,0,0,0,0,0,0,0,0,0,1,0,0,0,0,0,0.210083,-1.047974,-0.3123779,0,0,0,0,0,0
4.475055,-1,-0.1927661,1,-0.2403741,0,0,0,0,0,0,0,0,0,0,0,1,0,0,-0.07721464,0.0242389,0.03323478,0.2026367,-1.071899,-0.2623291,0,0,0,0,0,0
4.480055,-1,-0.2086106,1,-0.2403741,0,0,0,0,0,0,0,0,0,0,0,1,0,0,0,0,0,0.1894531,-1.036011,-0.2390137,0,0,0,0,0,0
4.485055,-1,-0.2244794,1,-0.2483314,0,0,0,0,0,0,0,0,0,0,0,0,0,0,0,0,0,0.1795654,-1.010986,-0.2416992,0,0,0,0,0,0
4.490055,-1,-0.2403741,1,-0.2722459,0,0,0,0,0,0,0,0,0,0,0,0,0,0,0,0,0,0.1856689,-0.9343262,-0.2835693,0,0,0,0,0,0
4.495055,-1,-0.2483314,1,-0.2802319,0,0,0,0,0,0,0,0,0,0,0,0,0,0,0,0,0,0.1777344,-0.8900146,-0.305542,0,0,0,0,0,0
4.500055,-1,-0.2562958,1,-0.2962267,0,0,0,0,0,0,0,0,0,0,0,0,0,0,-0.0422341,0.01524426,0.06672488,0.1627197,-0.836792,-0.3642578,0,0,0,0,0,0
4.505055,-1,-0.2562958,1,-0.2962267,0,0,0,0,0,0,0,0,0,0,0,0,0,0,0,0,0,0.1092529,-0.8509521,-0.3674316,0,0,0,0,0,0
4.510056,-1,-0.2562958,0.9798169,-0.2951256,0,0,0,0,0,0,0,0,0,0,0,0,0,0,0,0,0,0.03601074,-0.8693848,-0.3477783,0,0,0,0,0,0
4.515056,-1,-0.2562958,0.8524981,-0.2893093,0,0,0,0,0,0,0,0,0,0,0,0,0,0,0,0,0,-0.04663086,-0.8974609,-0.2789307,0,0,0,0,0,0
4.520056,-1,-0.2562958,0.7529764,-0.2837851,0,0,0,0,0,0,0,0,0,0,0,0,0,0,0,0,0,-0.07470703,-0.9257813,-0.2056885,0,0,0,0,0,0
4.525056,-1,-0.2562958,0.5398158,-0.1940514,0,0,0,0,0,0,0,0,0,0,0,0,0,0,-0.06020728,0.01499415,0.002768151,-0.06530762,-1.037109,-0.1218262,0,0,0,0,0,0
4.530056,-1,-0.2562958,0.4082397,-0.1273708,0,0,0,0,0,0,0,0,0,0,0,0,0,0,0,0,0,-0.0534668,-1.084717,-0.1051025,0,0,0,0,0,0
4.535056,-1,-0.2562958,0.2569291,-0.05801625,0,0,0,0,0,0,0,0,0,0,0,0,0,0,0,0,0,-0.04223633,-1.093506,-0.1158447,0,0,0,0,0,0
4.540056,-1,-0.2562958,0,0,0,0,0,0,0,0,0,0,0,0,0,0,0,0,0,0,0,0.006591797,-1.013184,-0.2806396,0,0,0,0,0,0
4.545056,-1,-0.2562958,0,0,0,0,0,0,0,0,0,0,0,0,0,0,0,0,0,0,0,0.1324463,-1.066162,-0.3359375,0,0,0,0,0,0
4.550056,-1,-0.2562958,0,0,0,0,0,0,0,0,0,0,0,0,0,1,0,0,0,0,0,0.1055908,-1.102783,-0.3291016,0,0,0,0,0,0
4.555057,-1,-0.2562958,-0.1578807,0.2439974,0,0,0,0,0,0,0,0,0,0,0,1,0,0,0,0,0,-0.04516602,-1.141968,-0.3342285,0,0,0,0,0,0
4.560057,-1,-0.2562958,-0.2445174,0.3985969,0,0,0,0,0,0,0,0,0,0,0,1,0,0,0,0,0,-0.04650879,-1.112549,-0.3424072,0,0,0,0,0,0
4.565057,-1,-0.2483314,-0.3987274,0.7177093,0,0,0,0,0,0,0,0,0,0,0,1,0,0,-0.1291804,-0.12226,-0.01914638,0.04614258,-1.049683,-0.4179688,0,0,0,0,0,0
4.570057,-1,-0.2403741,-0.4647644,0.8553228,0,0,0,0,0,0,0,0,0,0,0,1,0,0,0,0,0,0.1171875,-0.9873047,-0.49646,0,0,0,0,0,0
4.575057,-1,-0.2403741,-0.4872523,0.9546975,0,0,0,0,0,0,0,0,0,0,0,1,0,0,0,0,0,0.1292725,-0.9277344,-0.5302734,0,0,0,0,0,0
4.580057,-1,-0.2403741,-0.4380252,0.8179055,0,0,0,0,0,0,0,0,0,0,0,1,0,0,0,0,0,-0.06066895,-0.8325195,-0.4205322,0,0,0,0,0,0
4.585057,-1,-0.2403741,-0.1987898,0.2844224,0,0,0,0,0,0,0,0,0,0,0,1,0,0,0,0,0,-0.0859375,-0.894043,-0.4643555,0,0,0,0,0,0
4.590057,-1,-0.2403741,0.1172079,-0.2262385,0,0,0,0,0,0,0,0,0,0,0,1,0,0,0,0,0,-0.1724854,-0.9532471,-0.2503662,0,0,0,0,0,0
4.595057,-1,-0.2403741,-0.05830484,0.06129483,0,0,0,0,0,0,0,0,0,0,0,1,0,0,0,0,0,0.2858887,-0.6013184,-0.9525146,0,0,0,0,0,0
4.600058,-1,-0.2483314,0,0,0,0,0,0,0,0,0,0,0,0,0,1,0,0,0,0,0,0.08361816,-0.7402344,-0.663208,0,0,0,0,0,0
4.605058,-1,-0.2882255,0,0,0,0,0,0,0,0,0,0,0,0,0,1,0,0,-0.02474068,-0.1781829,-0.2386601,0.0916748,-0.6955566,-0.6881104,0,0,0,0,0,0
4.610058,-0.998794,-0.3118764,0,0,0,0,0,0,0,0,0,0,0,0,0,1,0,0,0,0,0,0.07788086,-0.7210693,-0.5760498,0,0,0,0,0,0
4.615058,-0.9916919,-0.3516358,0,0,0,0,0,0,0,0,0,0,0,0,0,1,0,0,0,0,0,0.07641602,-0.7860107,-0.4581299,0,0,0,0,0,0
4.620058,-0.9753033,-0.3830139,0,0,0,0,0,0,0,0,0,0,0,0,0,1,0,0,0.05922288,-0.06596979,-0.209654,0.243042,-0.9382324,-0.4615479,0,0,0,0,0,0
4.625058,-0.9667169,-0.3906326,0,0,0,0,0,0,0,0,0,0,0,0,0,1,0,0,0,0,0,0.3424072,-0.9047852,-0.4729004,0,0,0,0,0,0
4.630058,-0.9671836,-0.3987165,0,0,0,0,0,0,0,0,0,0,0,0,0,1,0,0,0,0,0,0.3493652,-0.8981934,-0.4425049,0,0,0,0,0,0
4.635058,-0.9586299,-0.4063328,0,0,0,0,0,0,0,0,0,0,0,0,0,1,0,0,0,0,0,0.3029785,-0.9523926,-0.4116211,0,0,0,0,0,0
4.640059,-0.9586299,-0.4063328,0,0,0,0,0,0,0,0,0,0,0,0,0,1,0,0,0,0,0,0.2644043,-0.9492188,-0.3626709,0,0,0,0,0,0
4.645059,-0.9586299,-0.4063328,0,0,0,0,0,0,0,0,0,0,0,0,0,0,0,0,0.008246895,0.03148814,-0.169936,0.2357178,-0.9552002,-0.2716064,0,0,0,0,0,0
4.650059,-0.9586299,-0.4063328,0,0,0,0,0,0,0,0,0,0,0,0,0,0,0,0,0,0,0,0.2441406,-0.9763184,-0.2794189,0,0,0,0,0,0
4.655059,-0.9586299,-0.4063328,0,0,0,0,0,0,0,0,0,0,0,0,0,0,0,0,0,0,0,0.2270508,-1.002808,-0.2609863,0,0,0,0,0,0
4.660059,-0.9586299,-0.4063328,0,0,0,0,0,0,0,0,0,0,0,0,0,0,0,0,-0.03344554,0.110255,-0.1300916,0.1916504,-1.058472,-0.2158203,0,0,0,0,0,0
4.665059,-0.9586299,-0.4063328,0,0,0,0,0,0,0,0,0,0,0,0,0,0,0,0,0,0,0,0.2363281,-1.055664,-0.2231445,0,0,0,0,0,0
4.670059,-0.9586299,-0.4063328,0,0,0,0,0,0,0,0,0,0,0,0,0,0,0,0,0,0,0,0.2634277,-1.043701,-0.2103271,0,0,0,0,0,0
4.675059,-0.9586299,-0.4063328,0,0,0,0,0,0,0,0,0,0,0,0,0,0,0,0,0,0,0,0.2633057,-1.128906,-0.2163086,0,0,0,0,0,0
4.680059,-0.9667169,-0.3906326,0,0,0,0,0,0,0,0,0,0,0,0,0,0,0,0,0,0,0,0.274292,-1.195801,-0.2474365,0,0,0,0,0,0
4.68506,-0.9731143,-0.3427569,0,0,0,0,0,0,0,0,0,0,0,0,0,1,0,0,-0.2881415,0.1766835,-0.1476944,0.2923584,-1.197998,-0.2436523,0,0,0,0,0,0
4.69006,-0.9893057,-0.3034922,0,0,0,0,0,0,0,0,0,0,0,0,0,1,0,0,0,0,0,0.2718506,-1.124878,-0.2230225,0,0,0,0,0,0
4.69506,-0.9878579,-0.2715626,0,0,0,0,0,0,0,0,0,0,0,0,0,1,0,0,0,0,0,0.2834473,-1.084229,-0.2564697,0,0,0,0,0,0
4.70006,-1,-0.2086106,0,0,0,0,0,0,0,0,0,0,0,0,0,1,0,0,-0.3533694,0.1545414,-0.1930615,0.2493896,-0.9387207,-0.2716064,0,0,0,0,0,0
4.70506,-1,-0.1848525,0,0,0,0,0,0,0,0,0,0,0,0,0,1,0,0,0,0,0,0.194458,-0.788208,-0.1435547,0,0,0,0,0,0
4.71006,-1,-0.1611441,0,0,0,0,0,0,0,0,0,0,0,0,0,1,0,0,0,0,0,0.159668,-0.8157959,-0.2532959,0,0,0,0,0,0
4.71506,-1,-0.1374799,0,0,0,0,0,0,0,0,0,0,0,0,0,1,0,0,0,0,0,0.2062988,-0.7937012,-0.3913574,0,0,0,0,0,0
4.72006,-1,-0.1296006,0,0,0,0,0,0,0,0,0,0,0,0,0,1,0,0,-0.2753739,0.1544293,-0.3308485,0.2408447,-0.7017822,-0.5404053,0,0,0,0,0,0
4.72506,-1,-0.113854,0,0,0,0,0,0,0,0,0,0,0,0,0,1,0,0,0,0,0,0.2506104,-0.6722412,-0.6998291,0,0,0,0,0,0
4.730061,-1,-0.113854,0,0,0,0,0,0,0,0,0,0,0,0,0,1,0,0,0,0,0,0.2486572,-0.7315674,-0.5881348,0,0,0,0,0,0
4.735061,-1,-0.1217254,0,0,0,0,0,0,0,0,0,0,0,0,0,1,0,0,0,0,0,0.3062744,-0.8083496,-0.4863281,0,0,0,0,0,0
