Timestamp, Left Stick X, Left Stick Y, Right Stick X, Right Stick Y, D-Pad Up, D-Pad Right,D-Pad Down, D-Pad Left, Button North, Button East, Button South, Button West, L1, R1, L2, R2, L3, R3,Gyroscope X, Gyroscope Y, Gyroscope Z, Accelerometer X, Accelerometer Y, Accelerometer Z,Touch 1, Touch 2, Touch 1 Pos X, Touch 1 Pos Y, Touch 2 Pos X, Touch 2 Pos Y
0,0.5072563,-1,0,0,0,0,0,0,0,0,0,0,0,0,0,0,0,0,0,0,0,0.015625,-1.059082,-0.1888428,0,0,0,0,0,0
0.005,0.5072563,-1,0,0,0,0,0,0,0,0,0,0,0,0,0,0,0,0,-0.04772814,-0.006497024,-0.003748283,0.01904297,-1.008179,-0.1889648,0,0,0,0,0,0
0.01,0.5072563,-1,0,0,0,0,0,0,0,0,0,0,0,0,0,0,0,0,0,0,0,0.02124023,-0.9929199,-0.2034912,0,0,0,0,0,0
0.015,0.5072563,-1,0,0,0,0,0,0,0,0,0,0,0,0,0,0,0,0,0,0,0,0.01818848,-0.9862061,-0.2185059,0,0,0,0,0,0
0.02,0.5067592,-1,0,0,0,0,0,0,0,0,0,0,0,0,0,0,0,0,-0.04174926,0.00415186,-0.005997131,0.02478027,-0.9777832,-0.213501,0,0,0,0,0,0
0.025,0.5072563,-1,0,0,0,0,0,0,0,0,0,0,0,0,0,0,0,0,0,0,0,0.0222168,-0.9749756,-0.2248535,0,0,0,0,0,0
0.03,0.5154955,-1,0,0,0,0,0,0,0,0,0,0,0,0,0,0,0,0,0,0,0,0.01635742,-0.9669189,-0.2355957,0,0,0,0,0,0
0.035,0.5154955,-1,0,0,0,0,0,0,0,0,0,0,0,0,0,0,0,0,0,0,0,0.01757813,-0.9553223,-0.2344971,0,0,0,0,0,0
0.04,0.5154955,-1,0,0,0,0,0,0,0,0,0,0,0,0,0,0,0,0,0,0,0,0.02270508,-0.9627686,-0.2391357,0,0,0,0,0,0
0.04499999,0.523744,-1,0.03114187,0,0,0,0,0,0,0,0,0,0,0,0,0,0,0,-0.02824167,0.01549543,-0.003748894,0.01074219,-0.9569092,-0.2495117,0,0,0,0,0,0
0.04999999,0.523744,-1,0.06805075,0,0,0,0,0,0,0,0,0,0,0,0,0,0,0,0,0,0,0.003662109,-0.9464111,-0.2528076,0,0,0,0,0,0
0.05499999,0.523744,-1,0.1049596,0,0,0,0,0,0,0,0,0,0,0,0,0,0,0,0,0,0,0.003173828,-0.9483643,-0.258667,0,0,0,0,0,0
0.05999999,0.5320019,-1,0.1787774,0,0,0,0,0,0,0,0,0,0,0,0,0,0,0,-0.01960601,0.01061031,0.00207593,0.006225586,-0.9611816,-0.2714844,0,0,0,0,0,0
0.06499999,0.531496,-1,0.2249135,0,0,0,0,0,0,0,0,0,0,0,0,0,0,0,0,0,0,0.01013184,-0.9715576,-0.2675781,0,0,0,0,0,0
0.06999999,0.540269,-1,0.2618322,-0.002756128,0,0,0,0,0,0,0,0,0,0,0,0,0,0,0,0,0,0.01245117,-0.9725342,-0.2674561,0,0,0,0,0,0
0.075,0.5397605,-1,0.3356473,-0.00302385,0,0,0,0,0,0,0,0,0,0,0,0,0,0,0,0,0,0.01245117,-0.9737549,-0.2630615,0,0,0,0,0,0
0.08,0.5480344,-1,0.3726051,-0.009393405,0,0,0,0,0,0,0,0,0,0,0,0,0,0,0,0,0,0.01391602,-0.9761963,-0.2587891,0,0,0,0,0,0
0.085,0.5563178,-1,0.4373835,-0.02302018,0,0,0,0,0,0,0,0,0,0,0,0,0,0,-0.01199451,0,0.02748741,0.02478027,-0.9692383,-0.2626953,0,0,0,0,0,0
0.09,0.5646105,-1,0.4744068,-0.03028129,0,0,0,0,0,0,0,0,0,0,0,0,0,0,0,0,0,0.0189209,-0.963623,-0.2689209,0,0,0,0,0,0
0.09500001,0.5646105,-1,0.5022222,-0.03758125,0,0,0,0,0,0,0,0,0,0,0,0,0,0,0,0,0,0.009155273,-0.960083,-0.262207,0,0,0,0,0,0
0.1,0.5806994,-1,0.5488917,-0.05943414,0,0,0,0,0,0,0,0,0,0,0,0,0,0,0,0,0,0.01013184,-0.9733887,-0.2567139,0,0,0,0,0,0
0.105,0.5890183,-1,0.5767347,-0.06722675,0,0,0,0,0,0,0,0,0,0,0,0,0,0,0,0,0,0.005126953,-0.9752197,-0.2529297,0,0,0,0,0,0
0.11,0.5884867,-0.9968243,0.6048414,-0.08231569,0,0,0,0,0,0,0,0,0,0,0,0,0,0,0,0,0,0.003051758,-0.973877,-0.2519531,0,0,0,0,0,0
0.115,0.6046099,-0.9889976,0.6513395,-0.09824675,0,0,0,0,0,0,0,0,0,0,0,0,0,0,0,0,0,0.001586914,-0.9750977,-0.2462158,0,0,0,0,0,0
0.12,0.6046099,-0.9889976,0.6608152,-0.1058765,0,0,0,0,0,0,0,0,0,0,0,0,0,0,0,0,0,-0.006713867,-0.9736328,-0.2445068,0,0,0,0,0,0
0.125,0.6207611,-0.981203,0.6889598,-0.1215811,0,0,0,0,0,0,0,0,0,0,0,0,0,0,-0.006247139,0,0.02673776,-0.006835938,-0.9744873,-0.2349854,0,0,0,0,0,0
0.13,0.6285701,-0.9728824,0.6981317,-0.121896,0,0,0,0,0,0,0,0,0,0,0,0,0,0,0,0,0,-0.002441406,-0.9758301,-0.237793,0,0,0,0,0,0
0.135,0.6369415,-0.9734389,0.7076192,-0.1296684,0,0,0,0,0,0,0,0,0,0,0,0,0,0,0,0,0,-0.002563477,-0.9840088,-0.2373047,0,0,0,0,0,0
0.14,0.6525872,-0.956861,0.7167883,-0.1299875,0,0,0,0,0,0,0,0,0,0,0,0,0,0,-0.007246681,0.001749199,0.02049061,-0.006103516,-0.9853516,-0.2340088,0,0,0,0,0,0
0.145,0.6688248,-0.9491705,0.7259591,-0.1303003,0,0,0,0,0,0,0,0,0,0,0,0,0,0,0,0,0,-0.01000977,-0.9880371,-0.2415771,0,0,0,0,0,0
0.15,0.6766679,-0.9409287,0.7259591,-0.1303003,0,0,0,0,0,0,0,0,0,0,0,0,0,0,0,0,0,-0.01367188,-0.9876709,-0.2363281,0,0,0,0,0,0
0.155,0.6923701,-0.9244941,0.7262768,-0.1378064,0,0,0,0,0,0,0,0,0,0,0,0,0,0,-0.01014989,0.003690868,0.01453279,-0.01647949,-0.986084,-0.2407227,0,0,0,0,0,0
0.16,0.7008187,-0.9250807,0.7259591,-0.1303003,0,0,0,0,0,0,0,0,0,0,0,0,0,0,0,0,0,-0.0201416,-0.9989014,-0.2338867,0,0,0,0,0,0
0.165,0.7165664,-0.9087183,0.7259591,-0.1303003,0,0,0,0,0,0,0,0,0,0,0,0,0,0,0,0,0,-0.02172852,-1.005981,-0.2237549,0,0,0,0,0,0
0.17,0.7323431,-0.892418,0.7259591,-0.1303003,0,0,0,0,0,0,0,0,0,0,0,0,0,0,0,0,0,-0.02978516,-1.014282,-0.2104492,0,0,0,0,0,0
0.175,0.7481521,-0.8761782,0.7256573,-0.1228036,0,0,0,0,0,0,0,0,0,0,0,0,0,0,0,0,0,-0.03308105,-1.002686,-0.2094727,0,0,0,0,0,0
0.18,0.7560699,-0.8680802,0.7070084,-0.1147501,0,0,0,0,0,0,0,0,0,0,0,0,0,0,0,0,0,-0.03930664,-0.9929199,-0.2080078,0,0,0,0,0,0
0.185,0.7719339,-0.851927,0.6694441,-0.09145411,0,0,0,0,0,0,0,0,0,0,0,0,0,0,0,0,0,-0.006713867,-0.9865723,-0.2061768,0,0,0,0,0,0
0.19,0.7878387,-0.8358289,0.6413675,-0.07609445,0,0,0,0,0,0,0,0,0,0,0,0,0,0,0,0,0,-0.007446289,-0.9781494,-0.2242432,0,0,0,0,0,0
0.1949999,0.7958074,-0.8277996,0.6133224,-0.06097358,0,0,0,0,0,0,0,0,0,0,0,0,0,0,0,0,0,-0.03515625,-0.9693604,-0.2255859,0,0,0,0,0,0
0.1999999,0.8191673,-0.7951917,0.5482978,-0.03841577,0,0,0,0,0,0,0,0,0,0,0,0,0,0,0,0,0,-0.008544922,-0.9648438,-0.2438965,0,0,0,0,0,0
0.2049999,0.8271842,-0.7872236,0.5203739,-0.02412329,0,0,0,0,0,0,0,0,0,0,0,0,0,0,0,0,0,-0.01293945,-0.9508057,-0.2541504,0,0,0,0,0,0
0.2099999,0.8432577,-0.771321,0.4741593,-0.01681416,0,0,0,0,0,0,0,0,0,0,0,0,0,0,0,0,0,-0.01489258,-0.946167,-0.2740479,0,0,0,0,0,0
0.2149999,0.8668616,-0.7390295,0.3725553,-0.003130716,0,0,0,0,0,0,0,0,0,0,0,0,0,0,0,0,0,0.01086426,-0.9482422,-0.2994385,0,0,0,0,0,0
0.2199999,0.8743551,-0.7226405,0.3171857,0,0,0,0,0,0,0,0,0,0,0,0,0,0,0,0,0,0,0.008544922,-0.9334717,-0.3378906,0,0,0,0,0,0
0.2249999,0.8894031,-0.6899853,0.1973528,0.007309361,0,0,0,0,0,0,0,0,0,1,0,0,0,0,-0.01824165,0.006247139,0.004747826,0.01086426,-1.027466,-0.1191406,0,0,0,0,0,0
0.2299999,0.9057398,-0.6743174,0.1328179,0.005947072,0,0,0,0,0,0,0,0,0,1,0,0,0,0,0,0,0,0.001098633,-0.9771729,-0.2435303,0,0,0,0,0,0
0.2349999,0.9215559,-0.6502753,0.0780027,0.007091154,0,0,0,0,0,0,0,0,0,1,0,0,0,0,0,0,0,-0.00402832,-0.9616699,-0.3361816,0,0,0,0,0,0
0.2399999,0.9368855,-0.6179457,0,0,0,0,0,0,0,0,0,0,0,1,0,0,0,0,-0.01637678,0.00830372,0.02191259,0.03491211,-0.9775391,-0.2591553,0,0,0,0,0,0
0.2449999,0.9529006,-0.5940678,0,0,0,0,0,0,0,0,0,0,0,1,0,0,0,0,0,0,0,0.03967285,-0.9714355,-0.3364258,0,0,0,0,0,0
0.2499999,0.9763092,-0.5459362,0,0,0,0,0,0,0,0,0,0,0,1,0,0,0,0,-0.01037965,-0.001153294,0.03390685,0.01501465,-0.9715576,-0.2727051,0,0,0,0,0,0
0.2549999,0.9836607,-0.5216986,0,0,0,0,0,0,0,0,0,0,0,1,0,0,0,0,0,0,0,0.009643555,-0.9743652,-0.2910156,0,0,0,0,0,0
0.2599999,0.9910758,-0.497528,0,0,0,0,0,0,0,0,0,0,0,1,0,0,0,0,0,0,0,0.01245117,-0.979248,-0.3171387,0,0,0,0,0,0
0.2649999,1,-0.4412105,0,0,0,0,0,0,0,0,0,0,0,1,0,0,0,0,0,0,0,0.001464844,-0.9584961,-0.2636719,0,0,0,0,0,0
0.2699999,1,-0.4172379,0,0,0,0,0,0,0,0,0,0,0,1,0,0,0,0,0,0,0,0.01049805,-0.9649658,-0.269165,0,0,0,0,0,0
0.2749999,1,-0.3928797,0,0,0,0,0,0,0,0,0,0,0,1,0,0,0,0,0,0,0,0.01928711,-0.9735107,-0.3012695,0,0,0,0,0,0
0.2799999,1,-0.336352,0,0,0,0,0,0,0,0,0,0,0,1,0,0,0,0,0,0,0,-0.0002441406,-0.9638672,-0.2679443,0,0,0,0,0,0
0.2849999,1,-0.3042357,0,0,0,0,0,0,0,0,0,0,0,1,0,0,0,0,0,0,0,0.008911133,-0.975708,-0.272583,0,0,0,0,0,0
0.2899999,1,-0.2722459,0,0,0,0,0,0,0,0,0,0,0,1,0,0,0,0,0,0,0,0.01098633,-0.9796143,-0.2949219,0,0,0,0,0,0
0.2949999,1,-0.2165419,0,0,0,0,0,0,0,0,0,0,0,1,0,0,0,0,0,0,0,-0.007568359,-0.9669189,-0.2755127,0,0,0,0,0,0
0.2999999,1,-0.1848525,0,0,0,0,0,0,0,0,0,0,0,1,0,0,0,0,0,0,0,0.004272461,-0.986084,-0.2606201,0,0,0,0,0,0
0.3049999,1,-0.113854,0,0,0,0,0,0,0,0,0,0,0,1,0,0,0,0,0.05147642,-0.004997711,0.07696475,0.005249023,-0.9951172,-0.2718506,0,0,0,0,0,0
0.3099999,1,-0.06669273,0,0,0,0,0,0,0,0,0,0,0,1,0,0,0,0,0,0,0,0.001220703,-0.9920654,-0.2359619,0,0,0,0,0,0
0.3149998,1,-0.01176485,0,0,0,0,0,0,0,0,0,0,0,1,0,0,0,0,0,0,0,0.007202148,-1.002319,-0.2177734,0,0,0,0,0,0
0.3199998,1,0.09812176,0,0,0,0,0,0,0,0,0,0,0,1,0,0,0,0,0.04872768,0.001999084,0.07871395,-0.0004882813,-1.026367,-0.2132568,0,0,0,0,0,0
0.3249998,1,0.1532514,0,0,0,0,0,0,0,0,0,0,0,0,0,0,0,0,0,0,0,-0.01940918,-1.026123,-0.1951904,0,0,0,0,0,0
0.3299998,1,0.2722459,0,0,0,0,0,0,0,0,0,0,0,0,0,0,0,0,0.02298947,0.01374371,0.07471578,-0.05212402,-1.047363,-0.1645508,0,0,0,0,0,0
0.3349998,1,0.336352,0,0,0,0,0,0,0,0,0,0,0,0,0,0,0,0,0.006745811,0.01998759,0.07145563,-0.05712891,-1.037109,-0.197876,0,0,0,0,0,0
0.3399998,1,0.4898192,0,0,0,0,0,0,0,0,0,0,0,0,0,0,0,0,0.01849153,0.01124485,0.04797802,-0.04406738,-0.982666,-0.2786865,0,0,0,0,0,0
0.3449998,0.9926133,0.5222183,0,0,0,0,0,0,0,0,0,0,0,0,0,0,0,0,0,0,0,-0.0925293,-0.9870605,-0.3007813,0,0,0,0,0,0
0.3499998,0.9852398,0.5464691,0,0,0,0,0,0,0,0,0,0,0,0,0,0,0,0,0,0,0,-0.1204834,-0.9665527,-0.2980957,0,0,0,0,0,0
0.3549998,0.9695654,0.5785473,0,0,0,0,0,0,0,0,0,0,0,0,0,0,0,0,0.03848238,0.005747368,0.02099039,-0.08947754,-0.9776611,-0.2711182,0,0,0,0,0,0
0.3599998,0.9612237,0.5863066,0,0,0,0,0,0,0,0,0,0,0,0,0,0,0,0,0,0,0,-0.08483887,-0.9875488,-0.2757568,0,0,0,0,0,0
0.3649998,0.9612237,0.5863066,0,0,0,0,0,0,0,0,0,0,0,0,0,0,0,0,0,0,0,-0.08129883,-0.9892578,-0.2539063,0,0,0,0,0,0
0.3699998,0.9529006,0.5940678,0,0,0,0,0,0,0,0,0,0,0,0,0,0,0,0,0,0,0,-0.07946777,-0.9891357,-0.2047119,0,0,0,0,0,0
0.3749998,0.9534637,0.6023977,0,0,0,0,0,0,0,0,0,0,0,0,0,0,0,0,0,0,0,-0.07116699,-1,-0.223999,0,0,0,0,0,0
0.3799998,0.9534637,0.6023977,0,0,0,0,0,0,0,0,0,0,0,0,0,0,0,0,0,0,0,-0.06994629,-0.996582,-0.2301025,0,0,0,0,0,0
0.3849998,0.9451655,0.6101702,0,0,0,0,0,0,0,0,0,0,0,0,0,0,0,0,0,0,0,-0.07202148,-0.9891357,-0.2106934,0,0,0,0,0,0
0.3899998,0.9451655,0.6101702,0,0,0,0,0,0,0,0,0,0,0,0,0,0,0,0,0,0,0,-0.07165527,-1.002808,-0.2313232,0,0,0,0,0,0
0.3949998,0.9451655,0.6101702,0,0,0,0,0,0,0,0,0,0,0,0,0,0,0,0,0,0,0,-0.07324219,-1.003662,-0.2324219,0,0,0,0,0,0
0.3999998,0.9451655,0.6101702,0,0,0,0,0,0,0,0,0,0,0,0,0,0,0,0,0,0,0,-0.0814209,-0.9881592,-0.2034912,0,0,0,0,0,0
0.4049998,0.9451655,0.6101702,0,0,0,0,0,0,0,0,0,0,0,0,0,0,0,0,0,0,0,-0.07214355,-0.9940186,-0.2211914,0,0,0,0,0,0
0.4099998,0.9363098,0.6095974,0,0,0,0,0,0,0,0,0,0,0,0,0,0,0,0,0,0,0,-0.06604004,-0.9967041,-0.2358398,0,0,0,0,0,0
0.4149998,0.9363098,0.6095974,0,0,0,0,0,0,0,0,0,0,0,0,0,0,0,0,0,0,0,-0.07019043,-0.9696045,-0.2276611,0,0,0,0,0,0
0.4199997,0.9363098,0.6095974,0,0,0,0,0,0,0,0,0,0,0,0,0,0,0,0,0,0,0,-0.06591797,-0.9697266,-0.2410889,0,0,0,0,0,0
0.4249997,0.9428936,0.5768758,0,0,0,0,0,0,0,0,0,0,0,0,0,0,0,0,-0.01049519,-0.001499313,-0.02373913,-0.0690918,-0.9547119,-0.2451172,0,0,0,0,0,0
0.4299997,0.9495519,0.5443038,0,0,0,0,0,0,0,0,0,0,0,0,0,0,0,0,0,0,0,-0.06311035,-0.9543457,-0.2380371,0,0,0,0,0,0
0.4349997,0.9652384,0.5124105,0,0,0,0,0,0,0,0,0,0,0,0,0,0,0,0,0,0,0,-0.0567627,-0.965332,-0.2487793,0,0,0,0,0,0
0.4399997,0.9971008,0.448894,0,0,0,0,0,0,0,0,0,0,0,0,0,0,0,0,-0.003248512,-0.003248512,-0.01699222,-0.04785156,-0.9615479,-0.2467041,0,0,0,0,0,0
0.4449997,1,0.4167845,0,0,0,0,0,0,0,0,0,0,0,0,0,0,0,0,0,0,0,-0.04089355,-0.9644775,-0.2348633,0,0,0,0,0,0
0.4499997,1,0.3766855,0,0,0,0,0,0,0,0,0,0,0,0,0,0,0,0,0,0,0,-0.03027344,-0.973999,-0.236084,0,0,0,0,0,0
0.4549997,1,0.3122526,0,0,0,0,0,0,0,0,0,0,0,0,0,0,0,0,0,0,0,-0.0402832,-0.973999,-0.2341309,0,0,0,0,0,0
0.4599997,1,0.2802319,0,0,0,0,0,0,0,0,0,0,0,0,0,0,0,0,0,0,0,-0.03991699,-0.9753418,-0.2231445,0,0,0,0,0,0
0.4649997,1,0.2562958,0,0,0,0,0,0,0,0,0,0,0,0,0,0,0,0,0,0,0,-0.03771973,-0.9852295,-0.2231445,0,0,0,0,0,0
0.4699997,1,0.1927661,0,0,0,0,0,0,0,0,0,0,0,0,0,0,0,0,0,0,0,-0.05090332,-0.9849854,-0.2310791,0,0,0,0,0,0
0.4749997,1,0.1532514,0,0,0,0,0,0,0,0,0,0,0,0,0,0,0,0,0,0,0,-0.04919434,-0.9875488,-0.2207031,0,0,0,0,0,0
0.4799997,1,0.1217254,0,0,0,0,0,0,0,0,0,0,0,0,0,0,0,0,0,0,0,-0.046875,-0.9906006,-0.2252197,0,0,0,0,0,0
0.4849997,1,0.05099206,0,0,0,0,0,0,0,0,0,0,0,0,0,0,0,0,0,0,0,-0.04199219,-0.9942627,-0.2384033,0,0,0,0,0,0
0.4899997,1,0,0,0,0,0,0,0,0,0,0,0,0,0,0,0,0,0,0,0,0,-0.03344727,-0.991333,-0.2325439,0,0,0,0,0,0
0.4949997,1,-0.07454614,0,0,0,0,0,0,0,0,0,0,0,0,0,0,0,0,-0.01222492,-0.003229225,-0.02491116,-0.01904297,-0.9973145,-0.2423096,0,0,0,0,0,0
0.4999997,1,-0.113854,0,0,0,0,0,0,0,0,0,0,0,0,0,0,0,0,0,0,0,-0.01586914,-0.9970703,-0.239624,0,0,0,0,0,0
0.5049997,1,-0.1611441,0,0,0,0,0,0,0,0,0,0,0,0,0,0,0,0,0,0,0,-0.01672363,-0.9851074,-0.2355957,0,0,0,0,0,0
0.5099997,1,-0.2244794,0,0,0,0,0,0,0,0,0,0,0,0,0,0,0,0,-0.01274416,-0.005247597,-0.0259881,-0.0222168,-0.9816895,-0.2457275,0,0,0,0,0,0
0.5149997,1,-0.2642672,0,0,0,0,0,0,0,0,0,0,0,0,0,0,0,0,0,0,0,-0.02734375,-0.9801025,-0.2523193,0,0,0,0,0,0
0.5199997,1,-0.3042357,0,0,0,0,0,0,0,0,0,0,0,0,0,0,0,0,0,0,0,-0.02648926,-0.9819336,-0.2489014,0,0,0,0,0,0
0.5249997,1,-0.3928797,0,0,0,0,0,0,0,0,0,0,0,0,0,0,0,0,0,0,0,-0.02648926,-0.9836426,-0.2601318,0,0,0,0,0,0
0.5299997,0.996623,-0.4407377,0,0,0,0,0,0,0,0,0,0,0,0,0,0,0,0,0,0,0,-0.02612305,-0.9875488,-0.2626953,0,0,0,0,0,0
0.5349997,0.9663064,-0.5288838,0,0,0,0,0,0,0,0,0,0,0,0,0,0,0,0,-0.005747368,-0.01049519,-0.02548833,-0.02429199,-0.9907227,-0.2489014,0,0,0,0,0,0
0.5399997,0.9340156,-0.5763075,0,0,0,0,0,0,0,0,0,0,0,0,0,0,0,0,0,0,0,-0.0255127,-0.9904785,-0.2484131,0,0,0,0,0,0
0.5449997,0.919205,-0.6167826,0,0,0,0,0,0,0,0,0,0,0,0,0,0,0,0,0,0,0,-0.02185059,-0.9869385,-0.2496338,0,0,0,0,0,0
0.5499997,0.856306,-0.7129246,0,0,0,0,0,0,0,0,0,0,0,0,0,0,0,0,0,0,0,-0.02246094,-0.9805908,-0.2467041,0,0,0,0,0,0
0.5549996,0.8246963,-0.7529836,0,0,0,0,0,0,0,0,0,0,0,0,0,0,0,0,0,0,0,-0.01953125,-0.9715576,-0.2226563,0,0,0,0,0,0
0.5599996,0.7621517,-0.8339776,0,0,0,0,0,0,0,0,0,0,0,0,0,0,0,0,-0.006497024,-0.01699222,-0.01674233,-0.0246582,-0.9776611,-0.253418,0,0,0,0,0,0
0.5649996,0.7220283,-0.8656361,0,0,0,0,0,0,0,0,0,0,0,0,0,0,0,0,0,0,0,-0.02893066,-0.9812012,-0.2526855,0,0,0,0,0,0
0.5699996,0.6827472,-0.9063369,0,0,0,0,0,0,0,0,0,0,0,0,0,0,0,0,0,0,0,-0.0201416,-0.9986572,-0.2585449,0,0,0,0,0,0
0.5749996,0.6112997,-0.9628969,0,0,0,0,0,0,0,0,0,0,0,0,0,0,0,0,-0.01199451,-0.01824165,-0.009495651,-0.01220703,-0.9916992,-0.2418213,0,0,0,0,0,0
0.5799996,0.5707892,-0.9779255,0,0,0,0,0,0,0,0,0,0,0,0,0,0,0,0,0,0,0,-0.01550293,-0.9812012,-0.244873,0,0,0,0,0,0
0.5849996,0.5309846,-1,0,0,0,0,0,0,0,0,0,0,0,0,0,0,0,0,0,0,0,-0.01147461,-0.9842529,-0.2479248,0,0,0,0,0,0
0.5899996,0.4580168,-1,0,0,0,0,0,0,0,0,0,0,0,0,0,0,0,0,-0.01037965,-0.01222492,-0.01014899,0,-0.9880371,-0.2424316,0,0,0,0,0,0
0.5949996,0.4253754,-1,0,0,0,0,0,0,0,0,0,0,0,0,0,0,0,0,0,0,0,0.00769043,-0.9863281,-0.2307129,0,0,0,0,0,0
0.5999996,0.3928797,-1,0,0,0,0,0,0,0,0,0,0,0,0,0,0,0,0,0,0,0,0.006591797,-0.9901123,-0.2183838,0,0,0,0,0,0
0.6049996,0.3283107,-1,0,0,0,0,0,0,0,0,0,0,0,0,0,0,0,0,-0.02223982,-0.005997253,-0.008246223,0.001708984,-0.9855957,-0.2203369,0,0,0,0,0,0
0.6099996,0.2962267,-1,0,0,0,0,0,0,0,0,0,0,0,0,0,0,0,0,0,0,0,-0.008911133,-0.982666,-0.2264404,0,0,0,0,0,0
0.6149996,0.2642672,-1,0,0,0,0,0,0,0,0,0,0,0,0,0,0,0,0,0,0,0,-0.007446289,-0.9832764,-0.234375,0,0,0,0,0,0
0.6199996,0.2006854,-1,0,0,0,0,0,0,0,0,0,0,0,0,0,0,0,0,0,0,0,-0.01647949,-0.9818115,-0.2468262,0,0,0,0,0,0
0.6249996,0.1690417,-1,0,0,0,0,0,0,0,0,0,0,0,0,0,0,0,0,0,0,0,-0.03015137,-0.9766846,-0.244751,0,0,0,0,0,0
0.6299996,0.113854,-1,0,0,0,0,0,0,0,0,0,0,0,0,0,0,0,0,-0.02006555,0.0006919156,-0.00945618,-0.03051758,-0.9736328,-0.2528076,0,0,0,0,0,0
0.6349996,0.08240198,-1,0,0,0,0,0,0,0,0,0,0,0,0,0,0,0,0,0,0,0,-0.03295898,-0.9752197,-0.2525635,0,0,0,0,0,0
0.6399996,0.05884144,-1,0,0,0,0,0,0,0,0,0,0,0,0,0,0,0,0,0,0,0,-0.03149414,-0.9782715,-0.2554932,0,0,0,0,0,0
0.6449996,0.003921574,-1,0,0,0,0,0,0,0,0,0,0,0,0,0,0,0,0,-0.01924119,-0.001749199,-0.006247139,-0.02062988,-0.979248,-0.2687988,0,0,0,0,0,0
0.6499996,-0.01960851,-1,0,0,0,0,0,0,0,0,0,0,0,0,0,0,0,0,0,0,0,-0.0213623,-0.9814453,-0.2642822,0,0,0,0,0,0
0.6549996,-0.04314433,-1,0,0,0,0,0,0,0,0,0,0,0,0,0,0,0,0,0,0,0,-0.02185059,-0.9812012,-0.2718506,0,0,0,0,0,0
0.6599995,-0.09026043,-1,0,0,0,0,0,0,0,0,0,0,0,0,0,0,0,0,-0.01774187,-0.004248055,0.001249428,-0.0213623,-0.9768066,-0.2744141,0,0,0,0,0,0
0.6649995,-0.113854,-1,0,0,0,0,0,0,0,0,0,0,0,0,0,0,0,0,0,0,0,-0.04785156,-0.9764404,-0.2524414,0,0,0,0,0,0
0.6699995,-0.1611441,-1,0,0,0,0,0,0,0,0,0,0,0,0,0,0,0,0,-0.01374371,-0.001999084,0.005997253,0.003662109,-0.980957,-0.2670898,0,0,0,0,0,0
0.6749995,-0.1848525,-1,0.003980001,0.0003061539,0,0,0,0,0,0,0,0,0,0,0,0,0,0,0,0,0,-0.006469727,-0.9733887,-0.2755127,0,0,0,0,0,0
0.6799995,-0.2086106,-1,0.02234257,0.001558784,0,0,0,0,0,0,0,0,0,0,0,0,0,0,0,0,0,-0.00793457,-0.9674072,-0.2816162,0,0,0,0,0,0
0.6849995,-0.2562958,-1,0.05882353,0,0,0,0,0,0,0,0,0,0,0,0,0,0,0,-0.007996337,-0.006497024,0.009745537,-0.04150391,-0.979248,-0.25,0,0,0,0,0,0
0.6899995,-0.2882255,-1,0.08650518,0,0,0,0,0,0,0,0,0,0,0,0,0,0,0,0,0,0,-0.01086426,-0.9782715,-0.2608643,0,0,0,0,0,0
0.6949995,-0.3202776,-1,0.1049596,0,0,0,0,0,0,0,0,0,0,0,0,0,0,0,0,0,0,-0.01000977,-0.9749756,-0.2617188,0,0,0,0,0,0
0.6999995,-0.3847782,-1,0.1326413,0,0,0,0,0,0,0,0,0,0,0,0,0,0,0,0,0,0,-0.007202148,-0.973877,-0.2675781,0,0,0,0,0,0
0.7049995,-0.4172379,-1,0.1511132,-0.002128356,0,0,0,0,0,0,0,0,0,0,0,0,0,0,0,0,0,-0.01391602,-0.9770508,-0.2589111,0,0,0,0,0,0
0.7099995,-0.481615,-1,0.1880188,-0.002379984,0,0,0,0,0,0,0,0,0,0,0,0,0,0,-0.003998169,-0.009745537,0.009745537,-0.04553223,-0.9870605,-0.2325439,0,0,0,0,0,0
0.7149995,-0.5052344,-0.9826212,0.2064719,-0.002487613,0,0,0,0,0,0,0,0,0,0,0,0,0,0,0,0,0,-0.004638672,-0.9869385,-0.2492676,0,0,0,0,0,0
0.7199995,-0.5294175,-0.9752428,0.2249251,-0.002585347,0,0,0,0,0,0,0,0,0,0,0,0,0,0,0,0,0,-0.008422852,-0.9825439,-0.2530518,0,0,0,0,0,0
0.7249995,-0.5608505,-0.9506614,0.2526053,-0.002716187,0,0,0,0,0,0,0,0,0,0,0,0,0,0,-0.009227169,-0.007381736,0.006228339,-0.01623535,-0.9848633,-0.2568359,0,0,0,0,0,0
0.7299995,-0.5768758,-0.9428936,0.2711339,-0.008385586,0,0,0,0,0,0,0,0,0,0,0,0,0,0,0,0,0,-0.02429199,-0.9873047,-0.2503662,0,0,0,0,0,0
0.7349995,-0.5929316,-0.9351605,0.2803578,-0.008495691,0,0,0,0,0,0,0,0,0,0,0,0,0,0,0,0,0,-0.03442383,-0.9880371,-0.2436523,0,0,0,0,0,0
0.7399995,-0.6161929,-0.9103752,0.3080305,-0.008800871,0,0,0,0,0,0,0,0,0,0,0,0,0,0,0,0,0,-0.02783203,-0.9797363,-0.2514648,0,0,0,0,0,0
0.7449995,-0.6323221,-0.9027491,0.317255,-0.008895,0,0,0,0,0,0,0,0,0,0,0,0,0,0,0,0,0,-0.0279541,-0.9758301,-0.24646,0,0,0,0,0,0
0.7499995,-0.6400992,-0.8945485,0.3357045,-0.009073096,0,0,0,0,0,0,0,0,0,0,0,0,0,0,0,0,0,-0.03723145,-0.9781494,-0.2436523,0,0,0,0,0,0
0.7549995,-0.6640815,-0.8788145,0.3541546,-0.009238816,0,0,0,0,0,0,0,0,0,0,0,0,0,0,0,0,0,-0.02832031,-0.9698486,-0.255249,0,0,0,0,0,0
0.7599995,-0.6718884,-0.870672,0.3633798,-0.00931743,0,0,0,0,0,0,0,0,0,0,0,0,0,0,0,0,0,-0.03198242,-0.9718018,-0.2570801,0,0,0,0,0,0
0.7649994,-0.6790792,-0.853813,0.3910559,-0.009537949,0,0,0,0,0,0,0,0,0,0,0,0,0,0,-0.01407143,-0.000922717,0.007381736,-0.03601074,-0.975708,-0.2567139,0,0,0,0,0,0
0.7699994,-0.6875248,-0.8544383,0.4002815,-0.009606755,0,0,0,0,0,0,0,0,0,0,0,0,0,0,0,0,0,-0.0526123,-0.977417,-0.2474365,0,0,0,0,0,0
0.7749994,-0.6953552,-0.8463467,0.4095071,-0.009673396,0,0,0,0,0,0,0,0,0,0,0,0,0,0,0,0,0,-0.03674316,-0.9790039,-0.2652588,0,0,0,0,0,0
0.7799994,-0.7031947,-0.8382716,0.4187329,-0.009737972,0,0,0,0,0,0,0,0,0,0,0,0,0,0,0,0,0,-0.02893066,-0.9682617,-0.2753906,0,0,0,0,0,0
0.7849994,-0.7031947,-0.8382716,0.4187329,-0.009737972,0,0,0,0,0,0,0,0,0,0,0,0,0,0,0,0,0,-0.03405762,-0.9588623,-0.2735596,0,0,0,0,0,0
0.7899994,-0.7031947,-0.8382716,0.4187329,-0.009737972,0,0,0,0,0,0,0,0,0,0,0,0,0,0,0,0,0,-0.04675293,-0.9572754,-0.2629395,0,0,0,0,0,0
0.7949994,-0.7031947,-0.8382716,0.4279586,-0.009800578,0,0,0,0,0,0,0,0,0,0,0,0,0,0,0,0,0,-0.03710938,-0.967041,-0.24646,0,0,0,0,0,0
0.7999994,-0.7031947,-0.8382716,0.4371446,-0.003286801,0,0,0,0,0,0,0,0,0,0,0,0,0,0,0,0,0,-0.0411377,-0.9602051,-0.2519531,0,0,0,0,0,0
0.8049994,-0.7031947,-0.8382716,0.4371396,0,0,0,0,0,0,0,0,0,0,0,0,0,0,0,-0.004248055,0.0009995422,-0.001249428,-0.04992676,-0.9685059,-0.2685547,0,0,0,0,0,0
0.8099994,-0.7031947,-0.8382716,0.4372642,0.0164385,0,0,0,0,0,0,0,0,0,0,0,0,0,0,0,0,0,-0.01062012,-0.9240723,-0.4105225,0,0,0,0,0,0
0.8149994,-0.7031947,-0.8382716,0.4375423,0.02960812,0,0,0,0,0,0,0,0,0,1,0,0,0,0,0,0,0,-0.0513916,-1.064087,-0.02514648,0,0,0,0,0,0
0.8199994,-0.7031947,-0.8382716,0.4382513,0.04942684,0,0,0,0,0,0,0,0,0,1,0,0,0,0,0,0,0,-0.04064941,-0.9633789,-0.348999,0,0,0,0,0,0
0.8249994,-0.7031947,-0.8382716,0.4397206,0.0760419,0,0,0,0,0,0,0,0,0,1,0,0,0,0,-0.01776074,0.003229225,-0.01130229,-0.02124023,-0.9733887,-0.2783203,0,0,0,0,0,0
0.8299994,-0.6784509,-0.8450879,0.4417463,0.1029634,0,0,0,0,0,0,0,0,0,1,0,0,0,0,-0.006458449,-0.01037965,-0.01868337,-0.02246094,-0.9472656,-0.3077393,0,0,0,0,0,0
0.8349994,-0.6628458,-0.8613026,0.4423331,0.1097518,0,0,0,0,0,0,0,0,0,1,0,0,0,0,0,0,0,-0.0213623,-0.9598389,-0.2982178,0,0,0,0,0,0
0.8399994,-0.6382642,-0.8681979,0.4338925,0.1159255,0,0,0,0,0,0,0,0,0,1,0,0,0,0,0,0,0,-0.002929688,-0.9886475,-0.3118896,0,0,0,0,0,0
0.8449994,-0.5644869,-0.8802837,0.4262361,0.1288621,0,0,0,0,0,0,0,0,0,1,0,0,0,0,0.004248055,-0.01524302,-0.01199451,-0.005249023,-0.9709473,-0.2601318,0,0,0,0,0,0
0.8499994,-0.5232169,-0.8772734,0.4262361,0.1288621,0,0,0,0,0,0,0,0,0,1,0,0,0,0,0,0,0,-0.005371094,-0.9788818,-0.2580566,0,0,0,0,0,0
0.8549994,-0.4909996,-0.8837993,0.4172329,0.1281266,0,0,0,0,0,0,0,0,0,1,0,0,0,0,0,0,0,-0.0007324219,-0.9932861,-0.2875977,0,0,0,0,0,0
0.8599994,-0.4022845,-0.8865881,0.3992569,0.1265936,0,0,0,0,0,0,0,0,0,1,0,0,0,0,0,0,0,-0.01782227,-0.9858398,-0.265625,0,0,0,0,0,0
0.8649994,-0.3626654,-0.8930148,0.3902852,0.1257944,0,0,0,0,0,0,0,0,0,1,0,0,0,0,0,0,0,-0.0222168,-0.9921875,-0.2633057,0,0,0,0,0,0
0.8699993,-0.2836179,-0.8974757,0.3643427,0.1298961,0,0,0,0,0,0,0,0,0,1,0,0,0,0,0.007496567,-0.007246681,0.005497482,-0.01647949,-0.9936523,-0.2950439,0,0,0,0,0,0
0.8749993,-0.2445963,-0.9046179,0.3465718,0.128013,0,0,0,0,0,0,0,0,0,1,0,0,0,0,0,0,0,-0.02355957,-0.9822998,-0.2753906,0,0,0,0,0,0
0.8799993,-0.2135337,-0.9123711,0.3377113,0.127029,0,0,0,0,0,0,0,0,0,1,0,0,0,0,0,0,0,-0.02172852,-0.9819336,-0.2636719,0,0,0,0,0,0
0.8849993,-0.143257,-0.9098753,0.3101657,0.1174414,0,0,0,0,0,0,0,0,0,1,0,0,0,0,0,0,0,-0.0002441406,-0.987793,-0.2851563,0,0,0,0,0,0
0.8899993,-0.1123611,-0.9182615,0.2914443,0.1089236,0,0,0,0,0,0,0,0,0,1,0,0,0,0,0,0,0,0.0004882813,-0.9833984,-0.2628174,0,0,0,0,0,0
0.8949993,-0.08906728,-0.9177802,0.262755,0.09323563,0,0,0,0,0,0,0,0,0,1,0,0,0,0,0,0,0,0.001342773,-0.9819336,-0.2506104,0,0,0,0,0,0
0.8999993,-0.02708533,-0.9170319,0.2050806,0.06329649,0,0,0,0,0,0,0,0,0,1,0,0,0,0,0,0,0,-0.002197266,-0.9891357,-0.2617188,0,0,0,0,0,0
0.9049993,0,-0.916955,0.1760859,0.04930407,0,0,0,0,0,0,0,0,0,1,0,0,0,0,0,0,0,-0.006713867,-0.980835,-0.2526855,0,0,0,0,0,0
0.9099993,0.05031164,-0.9172199,0.1458962,0.03171657,0,0,0,0,0,0,0,0,0,1,0,0,0,0,0.0172421,0.009745537,0.02648787,-0.01367188,-0.9825439,-0.2556152,0,0,0,0,0,0
0.9149993,0.07343717,-0.9083018,0.1358722,0.02636326,0,0,0,0,0,0,0,0,0,1,0,0,0,0,0,0,0,-0.0144043,-0.9833984,-0.2674561,0,0,0,0,0,0
0.9199993,0.09635258,-0.8902979,0.1258881,0.02130413,0,0,0,0,0,0,0,0,0,1,0,0,0,0,0,0,0,-0.02233887,-0.9675293,-0.2613525,0,0,0,0,0,0
0.9249993,0.1413055,-0.836376,0.1250818,0.01731901,0,0,0,0,0,0,0,0,0,0,0,0,0,0,0,0,0,-0.03125,-0.9691162,-0.2384033,0,0,0,0,0,0
0.9299993,0.1631463,-0.8005553,0.1244286,0.0134,0,0,0,0,0,0,0,0,0,0,0,0,0,0,0,0,0,-0.04589844,-0.9941406,-0.1973877,0,0,0,0,0,0
0.9349993,0.2039545,-0.6934453,0.1236017,0.005704696,0,0,0,0,0,0,0,0,0,0,0,0,0,0,0.009918332,0.01014899,0.01799139,-0.0144043,-0.876709,-0.3441162,0,0,0,0,0,0
0.9399993,0.2302729,-0.6323367,0.1234141,0,0,0,0,0,0,0,0,0,0,0,0,0,0,0,0,0,0,0.00793457,-0.9403076,-0.305542,0,0,0,0,0,0
0.9449993,0.2398463,-0.5620281,0.123435,-0.001898999,0,0,0,0,0,0,0,0,0,0,0,0,0,0,0,0,0,0.01403809,-0.9711914,-0.2827148,0,0,0,0,0,0
0.9499993,0.2519284,-0.3997263,0.1239339,-0.009533376,0,0,0,0,0,0,0,0,0,0,0,0,0,0,0.02898672,-0.004747826,0.0172421,-0.03637695,-0.9477539,-0.2662354,0,0,0,0,0,0
0.9549993,0.2469055,-0.31745,0.1244286,-0.0134,0,0,0,0,0,0,0,0,0,0,0,0,0,0,0,0,0,-0.03759766,-0.947876,-0.2467041,0,0,0,0,0,0
0.9599993,0.2381022,-0.2320744,0.1250818,-0.01731901,0,0,0,0,0,0,0,0,0,0,0,0,0,0,0,0,0,-0.02526855,-0.9588623,-0.2640381,0,0,0,0,0,0
0.9649993,0.2147021,-0.1033751,0.1279333,-0.02952306,0,0,0,0,0,0,0,0,0,0,0,0,0,0,0,0,0,-0.02929688,-0.9603271,-0.2731934,0,0,0,0,0,0
0.9699993,0.2028794,-0.05259838,0.1291566,-0.03377942,0,0,0,0,0,0,0,0,0,0,0,0,0,0,0,0,0,-0.04125977,-0.9595947,-0.2530518,0,0,0,0,0,0
0.9749992,0.2166672,0.02294124,0.1335219,-0.04724622,0,0,0,0,0,0,0,0,0,0,0,0,0,0,0.03921201,0.001845271,0.0286017,-0.03955078,-0.9935303,-0.2689209,0,0,0,0,0,0
0.9799992,0.2388572,0.05635956,0.1540021,-0.0602617,0,0,0,0,0,0,0,0,0,0,0,0,0,0,0,0,0,-0.05090332,-0.9829102,-0.2600098,0,0,0,0,0,0
0.9849992,0.261651,0.08721701,0.1641979,-0.06706674,0,0,0,0,0,0,0,0,0,0,0,0,0,0,0,0,0,-0.06738281,-0.9840088,-0.2287598,0,0,0,0,0,0
0.9899992,0.3195344,0.1706252,0.1930459,-0.08273397,0,0,0,0,0,0,0,0,0,0,0,0,0,0,0.02874152,0.0002499263,0.03074093,-0.05224609,-0.9871826,-0.236084,0,0,0,0,0,0
0.9949992,0.3369516,0.2214254,0.2016403,-0.08422951,0,0,0,0,0,0,0,0,0,0,0,0,0,0,0,0,0,-0.04760742,-0.9836426,-0.2397461,0,0,0,0,0,0
0.9999992,0.3529546,0.2671899,0.220325,-0.09290814,0,0,0,0,0,0,0,0,0,0,0,0,0,0,0,0,0,-0.0357666,-0.9793701,-0.2282715,0,0,0,0,0,0
1.004999,0.37695,0.3700335,0.2663256,-0.1116849,0,0,0,0,0,0,0,0,0,0,0,0,0,0,0,0,0,-0.02490234,-0.9882813,-0.2451172,0,0,0,0,0,0
1.009999,0.3836875,0.4188882,0.2937057,-0.1216357,0,0,0,0,0,0,0,0,0,0,0,0,0,0,0,0,0,-0.02734375,-0.9855957,-0.2458496,0,0,0,0,0,0
1.014999,0.3970092,0.4613891,0.3123527,-0.1303997,0,0,0,0,0,0,0,0,0,0,0,0,0,0,0,0,0,-0.03088379,-0.9882813,-0.2344971,0,0,0,0,0,0
1.019999,0.4093642,0.5716348,0.3583994,-0.1490688,0,0,0,0,0,0,0,0,0,0,0,0,0,0,0,0,0,-0.04492188,-0.998291,-0.2421875,0,0,0,0,0,0
1.024999,0.4144256,0.6235052,0.3770202,-0.1578974,0,0,0,0,0,0,0,0,0,0,0,0,0,0,0,0,0,-0.05297852,-1.000122,-0.2406006,0,0,0,0,0,0
1.029999,0.4067156,0.7184042,0.4230705,-0.176557,0,0,0,0,0,0,0,0,0,0,0,0,0,0,0.009745537,-0.00674691,0.01874142,-0.05688477,-0.9926758,-0.2348633,0,0,0,0,0,0
1.034999,0.394723,0.7702847,0.4407938,-0.1783364,0,0,0,0,0,0,0,0,0,0,0,0,0,0,0,0,0,-0.05651855,-0.9927979,-0.2469482,0,0,0,0,0,0
1.039999,0.3903656,0.8232463,0.4682983,-0.188003,0,0,0,0,0,0,0,0,0,0,0,0,0,0,0,0,0,-0.05285645,-0.9897461,-0.2526855,0,0,0,0,0,0
1.044999,0.3631598,0.9020422,0.51292,-0.1919088,0,0,0,0,0,0,0,0,0,0,0,0,0,0,0,0,0,-0.04760742,-0.987793,-0.2523193,0,0,0,0,0,0
1.049999,0.3646032,0.9291501,0.5308414,-0.1933528,0,0,0,0,0,0,0,0,0,0,0,0,0,0,0,0,0,-0.04577637,-0.9924316,-0.255127,0,0,0,0,0,0
1.054999,0.3588317,0.9739717,0.5674453,-0.2034238,0,0,0,0,0,0,0,0,0,0,0,0,0,0,0.005497482,-0.004747826,0.01774187,-0.05908203,-0.9927979,-0.2397461,0,0,0,0,0,0
1.059999,0.3512155,0.9826142,0.5848101,-0.1973285,0,0,0,0,0,0,0,0,0,0,0,0,0,0,0,0,0,-0.06323242,-0.9942627,-0.2369385,0,0,0,0,0,0
1.064999,0.3520505,1,0.6034625,-0.2059723,0,0,0,0,0,0,0,0,0,0,0,0,0,0,0,0,0,-0.05981445,-0.9931641,-0.2382813,0,0,0,0,0,0
1.069999,0.3524597,1,0.6395875,-0.2083228,0,0,0,0,0,0,0,0,0,0,0,0,0,0,0.0006920377,-0.003460189,0.01061124,-0.05102539,-0.9868164,-0.2352295,0,0,0,0,0,0
1.074999,0.3444016,1,0.6486337,-0.208882,0,0,0,0,0,0,0,0,0,0,0,0,0,0,0,0,0,-0.05053711,-0.9827881,-0.2337646,0,0,0,0,0,0
1.079999,0.3444016,1,0.6576852,-0.2094305,0,0,0,0,0,0,0,0,0,0,0,0,0,0,0,0,0,-0.05175781,-0.9825439,-0.2380371,0,0,0,0,0,0
1.084999,0.3444016,1,0.6848707,-0.2110142,0,0,0,0,0,0,0,0,0,0,0,0,0,0,0.005997253,-0.003498398,0.002998627,-0.06018066,-0.9848633,-0.2351074,0,0,0,0,0,0
1.089999,0.3444016,1,0.7030181,-0.2120214,0,0,0,0,0,0,0,0,0,0,0,0,0,0,0,0,0,-0.06311035,-0.9899902,-0.2255859,0,0,0,0,0,0
1.094999,0.3444016,1,0.7207129,-0.2053845,0,0,0,0,0,0,0,0,0,0,0,0,0,0,0,0,0,-0.0670166,-0.9847412,-0.2355957,0,0,0,0,0,0
1.099999,0.3444016,1,0.7562853,-0.1918933,0,0,0,0,0,0,0,0,0,0,0,0,0,0,0,0,0,-0.0682373,-0.9847412,-0.2436523,0,0,0,0,0,0
1.104999,0.3444016,1,0.76464,-0.1770349,0,0,0,0,0,0,0,0,0,0,0,0,0,0,0,0,0,-0.06848145,-0.9847412,-0.2407227,0,0,0,0,0,0
1.109999,0.3444016,1,0.790476,-0.1399407,0,0,0,0,0,0,0,0,0,0,0,0,0,0,0.003690868,-0.0006920377,-0.006228339,-0.06530762,-0.9920654,-0.2489014,0,0,0,0,0,0
1.114999,0.3444016,1,0.7991207,-0.124981,0,0,0,0,0,0,0,0,0,0,0,0,0,0,0,0,0,-0.06091309,-0.9914551,-0.2453613,0,0,0,0,0,0
1.119999,0.3444016,1,0.8076293,-0.1023755,0,0,0,0,0,0,0,0,0,0,0,0,0,0,0,0,0,-0.05505371,-0.9970703,-0.2454834,0,0,0,0,0,0
1.124999,0.3444016,1,0.8158836,-0.0569221,0,0,0,0,0,0,0,0,0,0,0,0,0,0,-0.0009995422,-0.001999084,-0.008246223,-0.04394531,-0.9866943,-0.2501221,0,0,0,0,0,0
1.129999,0.336352,1,0.8156861,-0.04173278,0,0,0,0,0,0,0,0,0,0,0,0,0,0,0,0,0,-0.0402832,-0.9781494,-0.2487793,0,0,0,0,0,0
1.134999,0.336352,1,0.815549,-0.02655276,0,0,0,0,0,0,0,0,0,0,0,0,0,0,0,0,0,-0.0378418,-0.9755859,-0.244873,0,0,0,0,0,0
1.139999,0.336352,1,0.8154728,0.01137869,0,0,0,0,0,0,0,0,0,0,0,0,0,0,0,0,0,-0.03210449,-0.9766846,-0.25,0,0,0,0,0,0
1.144999,0.336352,1,0.815549,0.02655276,0,0,0,0,0,0,0,0,0,0,0,0,0,0,0,0,0,-0.03503418,-0.97229,-0.2481689,0,0,0,0,0,0
1.149999,0.3283107,1,0.8158836,0.0569221,0,0,0,0,0,0,0,0,0,0,0,0,0,0,0.00449794,-0.004997711,-0.01274416,-0.0324707,-0.9764404,-0.2442627,0,0,0,0,0,0
1.154999,0.3283107,1,0.8162914,0.07973079,0,0,0,0,0,0,0,0,0,0,0,0,0,0,0,0,0,-0.03125,-0.9755859,-0.246582,0,0,0,0,0,0
1.159999,0.3283107,1,0.8166367,0.09495775,0,0,0,0,0,0,0,0,0,0,0,0,0,0,0,0,0,-0.03198242,-0.973877,-0.2454834,0,0,0,0,0,0
1.164999,0.3202776,1,0.8177484,0.1331218,0,0,0,0,0,0,0,0,0,0,0,0,0,0,0,0,0,-0.03479004,-0.9688721,-0.2476807,0,0,0,0,0,0
1.169999,0.3202776,1,0.8185794,0.1561012,0,0,0,0,0,0,0,0,0,0,0,0,0,0,0,0,0,-0.03344727,-0.9661865,-0.2518311,0,0,0,0,0,0
1.174999,0.3202776,1,0.8195268,0.1791524,0,0,0,0,0,0,0,0,0,0,0,0,0,0,0,0,0,-0.03161621,-0.9650879,-0.2502441,0,0,0,0,0,0
1.179999,0.3122526,1,0.820961,0.2100133,0,0,0,0,0,0,0,0,0,0,0,0,0,0,0,0,0,-0.03100586,-0.9655762,-0.2438965,0,0,0,0,0,0
1.184999,0.3042357,1,0.821747,0.2255027,0,0,0,0,0,0,0,0,0,0,0,0,0,0,0,0,0,-0.0333252,-0.9643555,-0.2423096,0,0,0,0,0,0
1.189999,0.2962267,1,0.8234468,0.256609,0,0,0,0,0,0,0,0,0,0,0,0,0,0,0.02448878,-0.01049519,-0.004747826,-0.03063965,-0.9777832,-0.2457275,0,0,0,0,0,0
1.194999,0.2882255,1,0.8243563,0.2722293,0,0,0,0,0,0,0,0,0,0,0,0,0,0,0,0,0,-0.02893066,-0.9876709,-0.2398682,0,0,0,0,0,0
1.199999,0.2802319,1,0.824825,0.2800569,0,0,0,0,0,0,0,0,0,0,0,0,0,0,0,0,0,-0.02905273,-0.994751,-0.2399902,0,0,0,0,0,0
1.204999,0.2642672,1,0.825789,0.2957477,0,0,0,0,0,0,0,0,0,0,0,0,0,0,0.02537248,-0.01153294,-0.0004613178,-0.02563477,-1.008667,-0.2362061,0,0,0,0,0,0
1.209999,0.2562958,1,0.825789,0.2957477,0,0,0,0,0,0,0,0,0,0,0,0,0,0,0,0,0,-0.03076172,-1.009277,-0.2347412,0,0,0,0,0,0
1.214999,0.2324234,1,0.8262836,0.3036112,0,0,0,0,0,0,0,0,0,0,0,0,0,0,0.02144939,-0.01130129,-0.001383831,-0.03979492,-1.013428,-0.2338867,0,0,0,0,0,0
1.219999,0.2086106,1,0.8262836,0.3036112,0,0,0,0,0,0,0,0,0,0,0,0,0,0,0,0,0,-0.04309082,-1.017944,-0.2294922,0,0,0,0,0,0
1.224999,0.2006854,1,0.8262836,0.3036112,0,0,0,0,0,0,0,0,0,0,0,0,0,0,0,0,0,-0.05175781,-1.018677,-0.2246094,0,0,0,0,0,0
1.229999,0.1690417,1,0.8262836,0.3036112,0,0,0,0,0,0,0,0,0,0,0,0,0,0,0.01424348,-0.007746452,-0.007246681,-0.05297852,-1.015625,-0.2198486,0,0,0,0,0,0
1.234999,0.1532514,1,0.8262836,0.3036112,0,0,0,0,0,0,0,0,0,0,0,0,0,0,0,0,0,-0.04833984,-1.011597,-0.215332,0,0,0,0,0,0
1.239999,0.1374799,1,0.817242,0.3031085,0,0,0,0,0,0,0,0,0,0,0,0,0,0,0,0,0,-0.04650879,-1.007446,-0.2124023,0,0,0,0,0,0
1.244999,0.1059862,1,0.7991728,0.3020797,0,0,0,0,0,0,0,0,0,0,0,0,0,0,0,0,0,-0.03918457,-0.9978027,-0.2109375,0,0,0,0,0,0
1.249999,0.09812176,1,0.7811235,0.3010183,0,0,0,0,0,0,0,0,0,0,0,0,0,0,0,0,0,-0.03686523,-0.9924316,-0.2156982,0,0,0,0,0,0
1.254999,0.07454614,1,0.7439584,0.2832329,0,0,0,0,0,0,0,0,0,0,0,0,0,0,0.003921201,-0.0004613178,-0.008534378,-0.02819824,-0.9707031,-0.2331543,0,0,0,0,0,0
1.259999,0.06669273,1,0.7152271,0.2583805,0,0,0,0,0,0,0,0,0,0,0,0,0,0,0,0,0,-0.03430176,-0.9655762,-0.2376709,0,0,0,0,0,0
1.264999,0.05884144,1,0.6870249,0.2413871,0,0,0,0,0,0,0,0,0,0,0,0,0,0,0,0,0,-0.0423584,-1.010498,-0.229248,0,0,0,0,0,0
1.269999,0.04314433,1,0.6294246,0.1928295,0,0,0,0,0,0,0,0,0,0,0,0,0,0,0,0,0,-0.04736328,-0.9931641,-0.2200928,0,0,0,0,0,0
1.274999,0.035298,1,0.6011409,0.1763826,0,0,0,0,0,0,0,0,0,0,0,0,0,0,0,0,0,-0.04821777,-0.977417,-0.2185059,0,0,0,0,0,0
1.279999,0.035298,1,0.563763,0.1595556,0,0,0,0,0,0,0,0,0,0,0,0,0,0,0,0,0,-0.04260254,-0.9752197,-0.2202148,0,0,0,0,0,0
1.284999,0.01960851,1,0.506529,0.1206021,0,0,0,0,0,0,0,0,0,0,0,0,0,0,0,0,0,-0.0423584,-0.973999,-0.2352295,0,0,0,0,0,0
1.289999,0.01960851,1,0.4781649,0.1051285,0,0,0,0,0,0,0,0,0,0,0,0,0,0,0,0,0,-0.04309082,-0.9692383,-0.2362061,0,0,0,0,0,0
1.294999,0.01960851,1,0.4406673,0.08945876,0,0,0,0,0,0,0,0,0,0,0,0,0,0,0,0,0,-0.04443359,-0.9691162,-0.2365723,0,0,0,0,0,0
1.299999,0.01176485,1,0.4114003,0.06154807,0,0,0,0,0,0,0,0,0,0,0,0,0,0,0,0,0,-0.04101563,-0.9658203,-0.2357178,0,0,0,0,0,0
1.304999,0.01176485,1,0.4014877,0.04817852,0,0,0,0,0,0,0,0,0,0,0,0,0,0,0,0,0,-0.0390625,-0.9616699,-0.2381592,0,0,0,0,0,0
1.309999,0.01176485,1,0.40091,0.03528008,0,0,0,0,0,0,0,0,0,0,0,0,0,0,0.003748283,0.009745537,0.004747826,-0.0390625,-0.9567871,-0.2489014,0,0,0,0,0,0
1.314999,0.01176485,1,0.3912885,0.02226845,0,0,0,0,0,0,0,0,0,0,0,0,0,0,0,0,0,-0.04455566,-0.956543,-0.2553711,0,0,0,0,0,0
1.319999,0.01176485,1,0.3910035,0,0,0,0,0,0,0,0,0,0,0,0,0,0,0,0.0210102,0.01220639,0.006708701,-0.04431152,-0.9678955,-0.2550049,0,0,0,0,0,0
1.324999,0.01176485,1,0.3911491,-0.01590037,0,0,0,0,0,0,0,0,0,0,0,0,0,0,0,0,0,-0.04382324,-0.9853516,-0.2491455,0,0,0,0,0,0
1.329999,0.01176485,1,0.4006863,-0.02884942,0,0,0,0,0,0,0,0,0,0,0,0,0,0,0.01299405,-0.001249428,0.006497024,-0.04516602,-0.9945068,-0.2414551,0,0,0,0,0,0
1.334999,0.003921574,1,0.4101162,-0.03552187,0,0,0,0,0,0,0,0,0,0,0,0,0,0,0,0,0,-0.04931641,-0.994751,-0.237915,0,0,0,0,0,0
1.339999,0.003921574,1,0.4103752,-0.04200691,0,0,0,0,0,0,0,0,0,0,0,0,0,0,0,0,0,-0.05505371,-0.994751,-0.2352295,0,0,0,0,0,0
1.344999,-0.01176485,1,0.4195745,-0.0422827,0,0,0,0,0,0,0,0,0,0,0,0,0,0,0,0,0,-0.05700684,-0.9902344,-0.2288818,0,0,0,0,0,0
1.349999,-0.01960851,1,0.4198662,-0.04882165,0,0,0,0,0,0,0,0,0,0,0,0,0,0,0,0,0,-0.0546875,-0.994751,-0.2318115,0,0,0,0,0,0
1.354999,-0.035298,1,0.429058,-0.04912878,0,0,0,0,0,0,0,0,0,0,0,0,0,0,0.00830372,-0.007842403,0.004843837,-0.05432129,-0.9996338,-0.2303467,0,0,0,0,0,0
1.359999,-0.05884144,1,0.429058,-0.04912878,0,0,0,0,0,0,0,0,0,0,0,0,0,0,0,0,0,-0.05041504,-0.9997559,-0.2301025,0,0,0,0,0,0
1.364999,-0.07454614,1,0.429058,-0.04912878,0,0,0,0,0,0,0,0,0,0,0,0,0,0,0,0,0,-0.04431152,-0.9993896,-0.2265625,0,0,0,0,0,0
1.369999,-0.1059862,1,0.429058,-0.04912878,0,0,0,0,0,0,0,0,0,0,0,0,0,0,0.0002498855,-0.009745537,-0.00224897,-0.04455566,-1.003052,-0.2229004,0,0,0,0,0,0
1.374999,-0.1217254,1,0.429058,-0.04912878,0,0,0,0,0,0,0,0,0,0,0,0,0,0,0,0,0,-0.0447998,-1.008789,-0.2259521,0,0,0,0,0,0
1.379999,-0.1374799,1,0.4198662,-0.04882165,0,0,0,0,0,0,0,0,0,0,0,0,0,0,0,0,0,-0.04882813,-1.006104,-0.2253418,0,0,0,0,0,0
1.384999,-0.1769445,1,0.3739345,-0.0471346,0,0,0,0,0,0,0,0,0,0,0,0,0,0,0,0,0,-0.05126953,-0.9986572,-0.2209473,0,0,0,0,0,0
1.389999,-0.2006854,1,0.3280605,-0.04514594,0,0,0,0,0,0,0,0,0,0,0,0,0,0,0,0,0,-0.04956055,-0.9945068,-0.2160645,0,0,0,0,0,0
1.394999,-0.2244794,1,0.2914186,-0.04327999,0,0,0,0,0,0,0,0,0,0,0,0,0,0,0,0,0,-0.04626465,-0.9807129,-0.2075195,0,0,0,0,0,0
1.399999,-0.2483314,1,0.1639345,-0.03368516,0,0,0,0,0,0,0,0,0,0,0,0,0,0,0,0,0,-0.04699707,-0.9577637,-0.2012939,0,0,0,0,0,0
1.404999,-0.2642672,1,0.09092321,-0.02073687,0,0,0,0,0,0,0,0,0,0,0,0,0,0,0,0,0,-0.04284668,-0.9542236,-0.2027588,0,0,0,0,0,0
1.409999,-0.2722459,1,0.007979404,-0.001841401,0,0,0,0,0,0,0,0,0,0,0,0,0,0,0,0,0,-0.04272461,-0.9554443,-0.2119141,0,0,0,0,0,0
1.414999,-0.2882255,1,0,0,0,0,0,0,0,0,0,0,0,0,0,0,0,0,0,0,0,0.002197266,-0.977417,-0.2457275,0,0,0,0,0,0
1.419999,-0.2882255,1,0,0,0,0,0,0,0,0,0,0,0,0,0,0,0,0,0,0,0,-0.001098633,-0.9746094,-0.263916,0,0,0,0,0,0
1.424999,-0.2882255,1,0,0,0,0,0,0,0,0,0,0,0,0,0,0,0,0,-0.00674691,0.004248055,-0.01424348,-0.0213623,-0.9763184,-0.2718506,0,0,0,0,0,0
1.429999,-0.2882255,1,0,0,0,0,0,0,0,0,0,0,0,0,0,0,0,0,0,0,0,-0.02392578,-0.9748535,-0.2684326,0,0,0,0,0,0
1.434999,-0.2882255,1,0,0,0,0,0,0,0,0,0,0,0,0,0,0,0,0,0,0,0,-0.01904297,-0.9716797,-0.2580566,0,0,0,0,0,0
1.439999,-0.2882255,1,0,0,0,0,0,0,0,0,0,0,0,0,0,0,0,0,0,0,0,-0.01086426,-0.9765625,-0.2564697,0,0,0,0,0,0
1.444999,-0.2882255,1,0,0,0,0,0,0,0,0,0,0,0,0,0,0,0,0,0,0,0,-0.01416016,-0.9898682,-0.2469482,0,0,0,0,0,0
1.449999,-0.2722459,1,0,0,0,0,0,0,0,0,0,0,0,0,0,0,0,0,-0.0009995422,0.004997711,0.007996337,-0.03369141,-0.9888916,-0.2287598,0,0,0,0,0,0
1.454999,-0.2562958,1,0,0,0,0,0,0,0,0,0,0,0,0,0,0,0,0,0,0,0,-0.03198242,-0.9875488,-0.21875,0,0,0,0,0,0
1.459999,-0.2403741,1,0,0,0,0,0,0,0,0,0,0,0,0,0,0,0,0,0,0,0,-0.03161621,-0.9927979,-0.2154541,0,0,0,0,0,0
1.464999,-0.2086106,1,0,0,0,0,0,0,0,0,0,0,0,0,0,0,0,0,-0.008496109,0.001749199,0.01649245,-0.03173828,-0.9997559,-0.2178955,0,0,0,0,0,0
1.469999,-0.1927661,1,-0.001550108,0.000460843,0,0,0,0,0,0,0,0,0,0,0,0,0,0,0,0,0,-0.02770996,-1.007935,-0.21875,0,0,0,0,0,0
1.474999,-0.1690417,1,-0.01871517,0.005021143,0,0,0,0,0,0,0,0,0,0,0,0,0,0,0,0,0,-0.02880859,-1.018188,-0.2203369,0,0,0,0,0,0
1.479999,-0.1296006,1,-0.03807466,0.01099935,0,0,0,0,0,0,0,0,0,0,0,0,0,0,0,0,0,-0.02233887,-1.022461,-0.2208252,0,0,0,0,0,0
1.484999,-0.09812176,1,-0.04675537,0.01293234,0,0,0,0,0,0,0,0,0,0,0,0,0,0,0,0,0,-0.02197266,-1.018677,-0.2224121,0,0,0,0,0,0
1.489999,-0.04314433,1,-0.06599432,0.01941009,0,0,0,0,0,0,0,0,0,0,0,0,0,0,-0.01845271,-0.003690542,0.02721775,-0.02990723,-1.00293,-0.2259521,0,0,0,0,0,0
1.494999,-0.01960851,1,-0.06599432,0.01941009,0,0,0,0,0,0,0,0,0,0,0,0,0,0,0,0,0,-0.03088379,-0.9981689,-0.2302246,0,0,0,0,0,0
1.499999,0.01176485,1,-0.06599432,0.01941009,0,0,0,0,0,0,0,0,0,0,0,0,0,0,0,0,0,-0.0369873,-0.9931641,-0.236084,0,0,0,0,0,0
1.504999,0.035298,1,-0.06599432,0.01941009,0,0,0,0,0,0,0,0,0,0,0,0,0,0,0,0,0,-0.04589844,-0.9816895,-0.2449951,0,0,0,0,0,0
1.509999,0.07454614,1,-0.06599432,0.01941009,0,0,0,0,0,0,0,0,0,0,0,0,0,0,0,0,0,-0.05419922,-0.9750977,-0.2514648,0,0,0,0,0,0
1.514999,0.09812176,1,-0.06599432,0.01941009,0,0,0,0,0,0,0,0,0,0,0,0,0,0,0,0,0,-0.05603027,-0.9771729,-0.2550049,0,0,0,0,0,0
1.519999,0.1296006,1,-0.06599432,0.01941009,0,0,0,0,0,0,0,0,0,0,0,0,0,0,-0.012226,-0.006228339,0.01822366,-0.06237793,-0.9709473,-0.2507324,0,0,0,0,0,0
1.524999,0.1453634,1,-0.06599432,0.01941009,0,0,0,0,0,0,0,0,0,0,0,0,0,0,0,0,0,-0.06628418,-0.9674072,-0.2521973,0,0,0,0,0,0
1.529999,0.1532514,1,-0.06599432,0.01941009,0,0,0,0,0,0,0,0,0,0,0,0,0,0,0,0,0,-0.06628418,-0.9665527,-0.2502441,0,0,0,0,0,0
1.534999,0.1848525,1,-0.06599432,0.01941009,0,0,0,0,0,0,0,0,0,0,0,0,0,0,-0.005747368,-0.009495651,0.01049519,-0.06311035,-0.963501,-0.2398682,0,0,0,0,0,0
1.539999,0.1927661,1,-0.06599432,0.01941009,0,0,0,0,0,0,0,0,0,0,0,0,0,0,0,0,0,-0.06066895,-0.9591064,-0.2338867,0,0,0,0,0,0
1.544999,0.2006854,1,-0.06599432,0.01941009,0,0,0,0,0,0,0,0,0,0,0,0,0,0,0,0,0,-0.06335449,-0.9580078,-0.230957,0,0,0,0,0,0
1.549999,0.2086106,1,-0.06599432,0.01941009,0,0,0,0,0,0,0,0,0,0,0,0,0,0,0.001499313,-0.005247597,0.003748283,-0.06396484,-0.9589844,-0.2237549,0,0,0,0,0,0
1.554999,0.2165419,1,-0.05732573,0.01754869,0,0,0,0,0,0,0,0,0,0,0,0,0,0,0,0,0,-0.06298828,-0.9613037,-0.2224121,0,0,0,0,0,0
1.559999,0.2165419,1,-0.04872335,0.01555,0,0,0,0,0,0,0,0,0,0,0,0,0,0,0,0,0,-0.05834961,-0.9637451,-0.2320557,0,0,0,0,0,0
1.564999,0.2244794,1,-0.04019775,0.01339925,0,0,0,0,0,0,0,0,0,1,0,0,0,0,0.01337822,-0.005074495,-0.005535814,-0.0769043,-0.9664307,-0.2131348,0,0,0,0,0,0
1.569999,0.2244794,1,-0.03176167,0.01107965,0,0,0,0,0,0,0,0,0,1,0,0,0,0,0,0,0,-0.06762695,-1.074341,0.01086426,0,0,0,0,0,0
1.574999,0.2324234,1,-0.02343045,0.008572117,0,0,0,0,0,0,0,0,0,1,0,0,0,0,0,0,0,-0.06469727,-0.9437256,-0.2581787,0,0,0,0,0,0
1.579999,0.2324234,1,-0.02128552,0.01036987,0,0,0,0,0,0,0,0,0,1,0,0,0,0,0,0,0,-0.06018066,-1.011475,-0.1708984,0,0,0,0,0,0
1.584999,0.2324234,1,-0.02455354,0.01322114,0,0,0,0,0,0,0,0,0,1,0,0,0,0,0,0,0,-0.03271484,-0.9992676,-0.2580566,0,0,0,0,0,0
1.589999,0.2324234,1,-0.0172296,0.009778961,0,0,0,0,0,0,0,0,0,1,0,0,0,0,0,0,0,-0.04736328,-0.9971924,-0.2868652,0,0,0,0,0,0
1.594999,0.2324234,1,-0.02082969,0.01294819,0,0,0,0,0,0,0,0,0,1,0,0,0,0,0,0,0,-0.04443359,-0.9910889,-0.2304688,0,0,0,0,0,0
1.599999,0.2324234,1,-0.01787633,0.01276881,0,0,0,0,0,0,0,0,0,1,0,0,0,0,0,0,0,-0.0291748,-1.00293,-0.2696533,0,0,0,0,0,0
1.604999,0.2324234,1,-0.01787633,0.01276881,0,0,0,0,0,0,0,0,0,1,0,0,0,0,-0.01476217,-0.004613177,-0.02168193,-0.0300293,-0.9853516,-0.2575684,0,0,0,0,0,0
1.609999,0.2324234,1,-0.01158581,0.008777132,0,0,0,0,0,0,0,0,0,1,0,0,0,0,0,0,0,-0.03161621,-0.9814453,-0.2373047,0,0,0,0,0,0
1.614999,0.2324234,1,-0.005654898,0.004560402,0,0,0,0,0,0,0,0,0,1,0,0,0,0,0,0,0,-0.02563477,-0.9992676,-0.2608643,0,0,0,0,0,0
1.619999,0.2165419,1,0,0,0,0,0,0,0,0,0,0,0,1,0,0,0,0,0,0,0,-0.03344727,-0.9946289,-0.2675781,0,0,0,0,0,0
1.624999,0.2006854,1,0,0,0,0,0,0,0,0,0,0,0,1,0,0,0,0,0,0,0,-0.0390625,-0.9870605,-0.2546387,0,0,0,0,0,0
1.629999,0.1927661,1,0,0,0,0,0,0,0,0,0,0,0,1,0,0,0,0,0,0,0,-0.03051758,-0.9949951,-0.2685547,0,0,0,0,0,0
1.634999,0.1453634,1,0,0,0,0,0,0,0,0,0,0,0,1,0,0,0,0,0,0,0,-0.02600098,-0.9901123,-0.282959,0,0,0,0,0,0
1.639999,0.113854,1,0,0,0,0,0,0,0,0,0,0,0,1,0,0,0,0,0,0,0,-0.02880859,-0.9770508,-0.2575684,0,0,0,0,0,0
1.644999,0.09026043,1,0,0,0,0,0,0,0,0,0,0,0,1,0,0,0,0,0,0,0,-0.02001953,-0.9819336,-0.2634277,0,0,0,0,0,0
1.649999,0.035298,1,0,0,0,0,0,0,0,0,0,0,0,1,0,0,0,0,0,0,0,-0.02746582,-0.979248,-0.253418,0,0,0,0,0,0
1.654999,0.01176485,1,0,0,0,0,0,0,0,0,0,0,0,1,0,0,0,0,0,0,0,-0.03808594,-0.9830322,-0.2137451,0,0,0,0,0,0
1.659999,-0.06669273,1,0,0,0,0,0,0,0,0,0,0,0,1,0,0,0,0,0.006498083,-0.002749189,0,-0.03063965,-0.9885254,-0.2303467,0,0,0,0,0,0
1.664999,-0.09812176,1,0,0,0,0,0,0,0,0,0,0,0,1,0,0,0,0,0,0,0,-0.02880859,-0.9855957,-0.2354736,0,0,0,0,0,0
1.669999,-0.1374799,1,0,0,0,0,0,0,0,0,0,0,0,1,0,0,0,0,0,0,0,-0.03381348,-0.9777832,-0.2270508,0,0,0,0,0,0
1.674999,-0.2244794,1,0,0,0,0,0,0,0,0,0,0,0,1,0,0,0,0,0.002998627,0,0.004747826,-0.0255127,-0.9779053,-0.25354,0,0,0,0,0,0
1.679999,-0.2562958,1,0,0,0,0,0,0,0,0,0,0,0,1,0,0,0,0,0,0,0,-0.02648926,-0.970459,-0.2574463,0,0,0,0,0,0
1.684999,-0.3444016,1,0,0,0,0,0,0,0,0,0,0,0,1,0,0,0,0,0.01174462,0.001999084,0.004248055,-0.03027344,-0.9632568,-0.2468262,0,0,0,0,0,0
1.689999,-0.3847782,1,0,0,0,0,0,0,0,0,0,0,0,1,0,0,0,0,0,0,0,-0.03149414,-0.9697266,-0.262085,0,0,0,0,0,0
1.694999,-0.433522,1,0,0,0,0,0,0,0,0,0,0,0,1,0,0,0,0,0,0,0,-0.03881836,-0.9683838,-0.2607422,0,0,0,0,0,0
1.699999,-0.531496,1,0,0,0,0,0,0,0,0,0,0,0,1,0,0,0,0,0.01868337,0.0009226355,0.005074495,-0.04907227,-0.9711914,-0.2443848,0,0,0,0,0,0
1.704999,-0.5635635,0.9952292,0,0,0,0,0,0,0,0,0,0,0,1,0,0,0,0,0,0,0,-0.04443359,-0.9820557,-0.2352295,0,0,0,0,0,0
1.709999,-0.6040648,0.980105,0,0,0,0,0,0,0,0,0,0,0,0,0,0,0,0,0,0,0,-0.0513916,-0.9869385,-0.2209473,0,0,0,0,0,0
1.714999,-0.6598403,0.9397725,0,0,0,0,0,0,0,0,0,0,0,0,0,0,0,0,0,0,0,-0.0715332,-1.036133,-0.1018066,0,0,0,0,0,0
1.719999,-0.6839312,0.923907,0,0,0,0,0,0,0,0,0,0,0,0,0,0,0,0,0,0,0,-0.05517578,-0.9442139,-0.3085938,0,0,0,0,0,0
1.724999,-0.731741,0.8836871,0,0,0,0,0,0,0,0,0,0,0,0,0,0,0,0,0.006247139,0,-0.0004997711,-0.009521484,-0.982666,-0.2536621,0,0,0,0,0,0
1.729999,-0.7560699,0.8680802,0,0,0,0,0,0,0,0,0,0,0,0,0,0,0,0,0,0,0,-0.03637695,-0.9935303,-0.2456055,0,0,0,0,0,0
1.734999,-0.7719339,0.851927,0,0,0,0,0,0,0,0,0,0,0,0,0,0,0,0,0,0,0,-0.05883789,-0.9841309,-0.2559814,0,0,0,0,0,0
1.739999,-0.8117793,0.8117793,0,0,0,0,0,0,0,0,0,0,0,0,0,0,0,0,0.004843837,-0.002998566,-0.005766472,-0.04968262,-0.9910889,-0.2258301,0,0,0,0,0,0
1.744999,-0.8191673,0.7951917,0,0,0,0,0,0,0,0,0,0,0,0,0,0,0,0,0,0,0,-0.04101563,-0.9920654,-0.2319336,0,0,0,0,0,0
1.749999,-0.8358289,0.7878387,0,0,0,0,0,0,0,0,0,0,0,0,0,0,0,0,0,0,0,-0.03320313,-0.9957275,-0.2415771,0,0,0,0,0,0
1.754999,-0.8593862,0.7554604,0,0,0,0,0,0,0,0,0,0,0,0,0,0,0,0,0,0,0,-0.04467773,-0.9797363,-0.2102051,0,0,0,0,0,0
1.759999,-0.8761782,0.7481521,0,0,0,0,0,0,0,0,0,0,0,0,0,0,0,0,0,0,0,-0.03955078,-0.9848633,-0.220459,0,0,0,0,0,0
1.764999,-0.8912154,0.7153703,0,0,0,0,0,0,0,0,0,0,0,0,0,0,0,0,-0.001499313,-0.005997253,-0.006497024,-0.03198242,-0.9766846,-0.2375488,0,0,0,0,0,0
1.769999,-0.8993645,0.7075,0,0,0,0,0,0,0,0,0,0,0,0,0,0,0,0,0,0,0,-0.03808594,-0.9730225,-0.2237549,0,0,0,0,0,0
1.774999,-0.9075292,0.6996371,0,0,0,0,0,0,0,0,0,0,0,0,0,0,0,0,0,0,0,-0.03479004,-0.9780273,-0.227417,0,0,0,0,0,0
1.779999,-0.9233196,0.6755022,0,0,0,0,0,0,0,0,0,0,0,0,0,0,0,0,-0.0002498855,-0.005247597,-0.00449794,-0.03063965,-0.9797363,-0.2398682,0,0,0,0,0,0
1.784999,-0.9315377,0.6676687,0,0,0,0,0,0,0,0,0,0,0,0,0,0,0,0,0,0,0,-0.03259277,-0.973877,-0.2235107,0,0,0,0,0,0
1.789999,-0.9397725,0.6598403,0,0,0,0,0,0,0,0,0,0,0,0,0,0,0,0,0,0,0,-0.03125,-0.9737549,-0.2252197,0,0,0,0,0,0
1.794999,-0.9468793,0.6352481,0,0,0,0,0,0,0,0,0,0,0,0,0,0,0,0,-0.0009995422,-0.004248055,-0.0007496566,-0.02844238,-0.9759521,-0.2374268,0,0,0,0,0,0
1.799999,-0.9551592,0.6274477,0,0,0,0,0,0,0,0,0,0,0,0,0,0,0,0,0,0,0,-0.03320313,-0.9710693,-0.2299805,0,0,0,0,0,0
1.804999,-0.9545932,0.6190876,0,0,0,0,0,0,0,0,0,0,0,0,0,0,0,0,0,0,0,-0.03442383,-0.9730225,-0.230835,0,0,0,0,0,0
1.809999,-0.9628969,0.6112997,0,0,0,0,0,0,0,0,0,0,0,0,0,0,0,0,0.001999084,-0.00449794,0.002998627,-0.03173828,-0.9794922,-0.2436523,0,0,0,0,0,0
1.814999,-0.962338,0.6029587,0,0,0,0,0,0,0,0,0,0,0,0,0,0,0,0,0,0,0,-0.03674316,-0.9805908,-0.2320557,0,0,0,0,0,0
1.819999,-0.9617803,0.5946276,0,0,0,0,0,0,0,0,0,0,0,0,0,0,0,0,0,0,0,-0.04199219,-0.9796143,-0.2315674,0,0,0,0,0,0
1.824998,-0.9701149,0.5868597,0,0,0,0,0,0,0,0,0,0,0,0,0,0,0,0,0.002499059,-0.003998494,0.007497177,-0.04125977,-0.9852295,-0.2342529,0,0,0,0,0,0
1.829998,-0.9701149,0.5868597,0,0,0,0,0,0,0,0,0,0,0,0,0,0,0,0,0,0,0,-0.0411377,-0.9876709,-0.2402344,0,0,0,0,0,0
1.834998,-0.9701149,0.5868597,0,0,0,0,0,0,0,0,0,0,0,0,0,0,0,0,0,0,0,-0.04248047,-0.9901123,-0.2429199,0,0,0,0,0,0
1.839998,-0.9701149,0.5868597,0,0,0,0,0,0,0,0,0,0,0,0,0,0,0,0,0,0,0,-0.04614258,-0.9865723,-0.236084,0,0,0,0,0,0
1.844998,-0.9701149,0.5868597,0,0,0,0,0,0,0,0,0,0,0,0,0,0,0,0,0,0,0,-0.04187012,-0.9885254,-0.2406006,0,0,0,0,0,0
1.849998,-0.9701149,0.5868597,0,0,0,0,0,0,0,0,0,0,0,0,0,0,0,0,0.007496567,-0.001249428,0.003248512,-0.04394531,-0.9865723,-0.2407227,0,0,0,0,0,0
1.854998,-0.9701149,0.5868597,0,0,0,0,0,0,0,0,0,0,0,0,0,0,0,0,0,0,0,-0.04382324,-0.9881592,-0.2342529,0,0,0,0,0,0
1.859998,-0.9701149,0.5868597,0,0,0,0,0,0,0,0,0,0,0,0,0,0,0,0,0,0,0,-0.0447998,-0.991333,-0.2366943,0,0,0,0,0,0
1.864998,-0.9701149,0.5868597,0,0,0,0,0,0,0,0,0,0,0,0,0,0,0,0,0.00674691,-0.001499313,-0.002498855,-0.04406738,-0.9940186,-0.2373047,0,0,0,0,0,0
1.869998,-0.9701149,0.5868597,0,0,0,0,0,0,0,0,0,0,0,0,0,0,0,0,0,0,0,-0.04675293,-0.9945068,-0.2368164,0,0,0,0,0,0
1.874998,-0.9701149,0.5868597,0,0,0,0,0,0,0,0,0,0,0,0,0,0,0,0,0.004248055,-0.00224897,-0.002998627,-0.04162598,-0.9938965,-0.2390137,0,0,0,0,0,0
1.879998,-0.9790122,0.5874074,0,0,0,0,0,0,0,0,0,0,0,0,0,0,0,0,0,0,0,-0.04174805,-0.9902344,-0.2357178,0,0,0,0,0,0
1.884998,-0.9701149,0.5868597,0,0,0,0,0,0,0,0,0,0,0,0,0,0,0,0,0,0,0,-0.04125977,-0.9906006,-0.2305908,0,0,0,0,0,0
1.889998,-0.9701149,0.5868597,0,0,0,0,0,0,0,0,0,0,0,0,0,0,0,0,0.002306589,-0.001845271,-0.003690542,-0.03723145,-0.9914551,-0.2385254,0,0,0,0,0,0
1.894998,-0.9790122,0.5874074,0,0,0,0,0,0,0,0,0,0,0,0,0,0,0,0,0,0,0,-0.03564453,-0.9874268,-0.2364502,0,0,0,0,0,0
1.899998,-0.9701149,0.5868597,0,0,0,0,0,0,0,0,0,0,0,0,0,0,0,0,0,0,0,-0.03527832,-0.9837646,-0.2342529,0,0,0,0,0,0
1.904998,-0.9701149,0.5868597,0,0,0,0,0,0,0,0,0,0,0,0,0,0,0,0,0,0,0,-0.0333252,-0.9851074,-0.2410889,0,0,0,0,0,0
1.909998,-0.9701149,0.5868597,0,0,0,0,0,0,0,0,0,0,0,0,0,0,0,0,0,0,0,-0.03564453,-0.9881592,-0.2399902,0,0,0,0,0,0
1.914998,-0.979558,0.5957312,0,0,0,0,0,0,0,0,0,0,0,0,0,0,0,0,0.001249428,-0.001749199,-0.001999084,-0.03173828,-0.9936523,-0.2337646,0,0,0,0,0,0
1.919998,-0.979558,0.5957312,0,0,0,0,0,0,0,0,0,0,0,0,0,0,0,0,0,0,0,-0.0300293,-0.9985352,-0.2349854,0,0,0,0,0,0
1.924998,-0.9706661,0.5951821,0,0,0,0,0,0,0,0,0,0,0,0,0,0,0,0,0,0,0,-0.02880859,-0.9978027,-0.2318115,0,0,0,0,0,0
1.929998,-0.9706661,0.5951821,0,0,0,0,0,0,0,0,0,0,0,0,0,0,0,0,0.0009226355,-0.001614612,0.002767907,-0.03430176,-0.9873047,-0.2305908,0,0,0,0,0,0
1.934998,-0.9712184,0.6035143,0,0,0,0,0,0,0,0,0,0,0,0,0,0,0,0,0,0,0,-0.03540039,-0.9816895,-0.2319336,0,0,0,0,0,0
1.939998,-0.9712184,0.6035143,0,0,0,0,0,0,0,0,0,0,0,0,0,0,0,0,0,0,0,-0.03747559,-0.979248,-0.2301025,0,0,0,0,0,0
1.944998,-0.9712184,0.6035143,0,0,0,0,0,0,0,0,0,0,0,0,0,0,0,0,0,0,0.003498398,-0.03979492,-0.9810791,-0.2243652,0,0,0,0,0,0
1.949998,-0.9712184,0.6035143,0,0,0,0,0,0,0,0,0,0,0,0,0,0,0,0,0,0,0,-0.04455566,-0.9702148,-0.2325439,0,0,0,0,0,0
1.954998,-0.9712184,0.6035143,0,0,0,0,0,0,0,0,0,0,0,0,0,0,0,0,0,0,0,-0.04504395,-0.9642334,-0.2371826,0,0,0,0,0,0
1.959998,-0.9712184,0.6035143,0,0,0,0,0,0,0,0,0,0,0,0,0,0,0,0,0.006247139,-0.001499313,-0.001249428,-0.03710938,-0.9561768,-0.2319336,0,0,0,0,0,0
1.964998,-0.9712184,0.6035143,0,0,0,0,0,0,0,0,0,0,0,0,0,0,0,0,0,0,0,-0.03259277,-0.9665527,-0.230835,0,0,0,0,0,0
1.969998,-0.9712184,0.6035143,0,0,0,0,0,0,0,0,0,0,0,0,0,0,0,0,0,0,0,-0.03283691,-0.9790039,-0.2337646,0,0,0,0,0,0
1.974998,-0.9712184,0.6035143,0,0,0,0,0,0,0,0,0,0,0,0,0,0,0,0,0,0,0,-0.03588867,-0.9780273,-0.2358398,0,0,0,0,0,0
1.979998,-0.9712184,0.6035143,0,0,0,0,0,0,0,0,0,0,0,0,0,0,0,0,0,0,0,-0.0333252,-0.977417,-0.2365723,0,0,0,0,0,0
1.984998,-0.9712184,0.6035143,0,0,0,0,0,0,0,0,0,0,0,0,0,0,0,0,0.00645788,-0.00645788,0.003920855,-0.03369141,-0.9837646,-0.234375,0,0,0,0,0,0
1.989998,-0.9712184,0.6035143,0,0,0,0,0,0,0,0,0,0,0,0,0,0,0,0,0,0,0,-0.02648926,-0.963623,-0.2341309,0,0,0,0,0,0
1.994998,-0.9712184,0.6035143,0,0,0,0,0,0,0,0,0,0,0,0,0,0,0,0,0,0,0,-0.0234375,-0.9592285,-0.2349854,0,0,0,0,0,0
1.999998,-0.9712184,0.6035143,0,0,0,0,0,0,0,0,0,0,0,0,0,0,0,0,0.01199451,-0.008246223,0.002498855,-0.02392578,-0.9727783,-0.2132568,0,0,0,0,0,0
2.004998,-0.9712184,0.6035143,0,0,0,0,0,0,0,0,0,0,0,0,0,0,0,0,0,0,0,-0.02404785,-0.97229,-0.2167969,0,0,0,0,0,0
2.009999,-0.9712184,0.6035143,0,0,0,0,0,0,0,0,0,0,0,0,0,0,0,0,0,0,0,-0.03112793,-0.9637451,-0.2203369,0,0,0,0,0,0
2.014999,-0.9712184,0.6035143,0,0,0,0,0,0,0,0,0,0,0,0,0,0,0,0,0,0,0,-0.0333252,-0.9572754,-0.2264404,0,0,0,0,0,0
2.019999,-0.9712184,0.6035143,0,0,0,0,0,0,0,0,0,0,0,0,0,0,0,0,0,0,0,-0.03161621,-0.9624023,-0.2330322,0,0,0,0,0,0
2.024999,-0.9712184,0.6035143,0,0,0,0,0,0,0,0,0,0,0,0,0,0,0,0,0,0,0,-0.02978516,-0.9703369,-0.2358398,0,0,0,0,0,0
2.029999,-0.9712184,0.6035143,0,0,0,0,0,0,0,0,0,0,0,0,0,0,0,0,0.0172421,-0.01149474,-0.01099496,-0.03393555,-0.9858398,-0.2333984,0,0,0,0,0,0
2.034999,-0.9712184,0.6035143,0,0,0,0,0,0,0,0,0,0,0,0,0,0,0,0,0,0,0,-0.0333252,-0.9892578,-0.2321777,0,0,0,0,0,0
2.039999,-0.9712184,0.6035143,0,0,0,0,0,0,0,0,0,0,0,0,0,0,0,0,0,0,0,-0.03417969,-0.9923096,-0.2316895,0,0,0,0,0,0
2.044999,-0.9712184,0.6035143,0,0,0,0,0,0,0,0,0,0,0,0,0,0,0,0,0.01299405,-0.01199451,-0.01024531,-0.03759766,-0.9990234,-0.229126,0,0,0,0,0,0
2.049999,-0.9712184,0.6035143,0,0,0,0,0,0,0,0,0,0,0,0,0,0,0,0,0,0,0,-0.04003906,-1.000977,-0.2241211,0,0,0,0,0,0
2.055,-0.9712184,0.6035143,0,0,0,0,0,0,0,0,0,0,0,0,0,0,0,0,0,0,0,-0.03845215,-0.9990234,-0.2271729,0,0,0,0,0,0
2.06,-0.9712184,0.6035143,0,0,0,0,0,0,0,0,0,0,0,0,0,0,0,0,0.006247139,-0.01274416,-0.01024531,-0.04663086,-0.9929199,-0.2246094,0,0,0,0,0,0
2.065,-0.9712184,0.6035143,0,0,0,0,0,0,0,0,0,0,0,0,0,0,0,0,0,0,0,-0.04589844,-0.9918213,-0.2254639,0,0,0,0,0,0
2.07,-0.9712184,0.6035143,0,0,0,0,0,0,0,0,0,0,0,0,0,0,0,0,0,0,0,-0.04333496,-0.9942627,-0.2220459,0,0,0,0,0,0
2.075,-0.9712184,0.6035143,0,0,0,0,0,0,0,0,0,0,0,0,0,0,0,0,0,0,0,-0.04284668,-0.9942627,-0.2247314,0,0,0,0,0,0
2.08,-0.9712184,0.6035143,0,0,0,0,0,0,0,0,0,0,0,0,0,0,0,0,0,0,0,-0.0411377,-1.001099,-0.227417,0,0,0,0,0,0
2.085,-0.9712184,0.6035143,0,0,0,0,0,0,0,0,0,0,0,0,0,0,0,0,0,0,0,-0.0345459,-1.003784,-0.2305908,0,0,0,0,0,0
2.09,-0.9712184,0.6035143,0,0,0,0,0,0,0,0,0,0,0,0,0,0,0,0,0,0,0,-0.02514648,-0.9959717,-0.239502,0,0,0,0,0,0
2.095001,-0.9712184,0.6035143,0,0,0,0,0,0,0,0,0,0,0,0,0,0,0,0,0,0,0,-0.01953125,-0.9914551,-0.2390137,0,0,0,0,0,0
2.100001,-0.9712184,0.6035143,0,0,0,0,0,0,0,0,0,0,0,0,0,0,0,0,0,0,0,-0.01416016,-0.9885254,-0.2404785,0,0,0,0,0,0
2.105001,-0.9717721,0.6118565,0,0,0,0,0,0,0,0,0,0,0,0,0,0,0,0,0,0,0,-0.02160645,-0.9985352,-0.2329102,0,0,0,0,0,0
2.110001,-0.9723267,0.6202084,0,0,0,0,0,0,0,0,0,0,0,0,0,0,0,0,0,0,0,-0.03125,-0.9970703,-0.2271729,0,0,0,0,0,0
2.115001,-0.9640176,0.6280115,0,0,0,0,0,0,0,0,0,0,0,0,0,0,0,0,0.0004997711,-0.003748283,-0.0002498855,-0.04040527,-0.9810791,-0.21521,0,0,0,0,0,0
2.120001,-0.9557259,0.6358177,0,0,0,0,0,0,0,0,0,0,0,0,0,0,0,0,0,0,0,-0.03405762,-0.9747314,-0.2110596,0,0,0,0,0,0
2.125001,-0.956861,0.6525872,0,0,0,0,0,0,0,0,0,0,0,0,0,0,0,0,0,0,0,-0.03039551,-0.9758301,-0.2110596,0,0,0,0,0,0
2.130001,-0.9403506,0.6682492,-0.04036909,0,0,0,0,0,0,0,0,0,0,0,0,0,0,0,0.003748283,-0.0009995422,-0.002498855,-0.03112793,-1.000732,-0.2149658,0,0,0,0,0,0
2.135001,-0.9327032,0.6845161,-0.05882353,0,0,0,0,0,0,0,0,0,0,0,0,0,0,0,0,0,0,-0.03149414,-1.009766,-0.2156982,0,0,0,0,0,0
2.140002,-0.9163012,0.7002302,-0.08650518,0,0,0,0,0,0,0,0,0,0,0,0,0,0,0,0,0,0,-0.03222656,-1.017456,-0.2193604,0,0,0,0,0,0
2.145002,-0.8918174,0.7238518,-0.1142091,-0.001812842,0,0,0,0,0,0,0,0,0,0,0,0,0,0,-0.0004997711,0.0007496566,0.0007496566,-0.03894043,-1.010254,-0.2246094,0,0,0,0,0,0
2.150002,-0.8755721,0.7396386,-0.123435,-0.001898999,0,0,0,0,0,0,0,0,0,0,0,0,0,0,0,0,0,-0.03491211,-1.011963,-0.2183838,0,0,0,0,0,0
2.155002,-0.8599966,0.763997,-0.1328179,-0.005947072,0,0,0,0,0,0,0,0,0,0,0,0,0,0,0,0,0,-0.03601074,-1.011475,-0.2218018,0,0,0,0,0,0
2.160002,-0.8277996,0.7958074,-0.1512531,-0.006390974,0,0,0,0,0,0,0,0,0,0,0,0,0,0,-0.007246681,0,0.001749199,-0.03015137,-1.005371,-0.2182617,0,0,0,0,0,0
2.165002,-0.8037875,0.8197833,-0.1512531,-0.006390974,0,0,0,0,0,0,0,0,0,0,0,0,0,0,0,0,0,-0.0390625,-1.006714,-0.2202148,0,0,0,0,0,0
2.170002,-0.7560699,0.8680802,-0.1607354,-0.01100928,0,0,0,0,0,0,0,0,0,0,0,0,0,0,-0.01349382,-0.0007496566,0.001999084,-0.04736328,-0.9945068,-0.2189941,0,0,0,0,0,0
2.175002,-0.731741,0.8836871,-0.1791483,-0.011633,0,0,0,0,0,0,0,0,0,0,0,0,0,0,0,0,0,-0.04980469,-0.9844971,-0.2232666,0,0,0,0,0,0
2.180002,-0.6990393,0.8987648,-0.188357,-0.01192133,0,0,0,0,0,0,0,0,0,0,0,0,0,0,0,0,0,-0.04516602,-0.9759521,-0.2305908,0,0,0,0,0,0
2.185003,-0.6598403,0.9397725,-0.2067784,-0.01245653,0,0,0,0,0,0,0,0,0,0,0,0,0,0,-0.01130229,-0.001153294,-0.008073061,-0.03869629,-0.973999,-0.2467041,0,0,0,0,0,0
2.190003,-0.6358177,0.9557259,-0.2159908,-0.01270534,0,0,0,0,0,0,0,0,0,0,0,0,0,0,0,0,0,-0.04394531,-0.9694824,-0.2454834,0,0,0,0,0,0
2.195003,-0.6112997,0.9628969,-0.2252042,-0.01294277,0,0,0,0,0,0,0,0,0,0,0,0,0,0,0,0,0,-0.04760742,-0.9727783,-0.2463379,0,0,0,0,0,0
2.200003,-0.5635635,0.9952292,-0.2436337,-0.01338647,0,0,0,0,0,0,0,0,0,0,0,0,0,0,-0.007996337,-0.005997253,-0.02298947,-0.04968262,-0.9796143,-0.2330322,0,0,0,0,0,0
2.205003,-0.5392466,1,-0.2528496,-0.01359407,0,0,0,0,0,0,0,0,0,0,0,0,0,0,0,0,0,-0.05029297,-0.9776611,-0.2353516,0,0,0,0,0,0
2.210003,-0.5227324,1,-0.2620663,-0.01379296,0,0,0,0,0,0,0,0,0,0,0,0,0,0,0,0,0,-0.04711914,-0.9868164,-0.2338867,0,0,0,0,0,0
2.215003,-0.4743927,1,-0.2897199,-0.01434257,0,0,0,0,0,0,0,0,0,0,0,0,0,0,-0.01084097,-0.009226355,-0.03183093,-0.04492188,-0.9869385,-0.2285156,0,0,0,0,0,0
2.220003,-0.4498426,1,-0.2989388,-0.01451159,0,0,0,0,0,0,0,0,0,0,0,0,0,0,0,0,0,-0.04760742,-0.9892578,-0.2244873,0,0,0,0,0,0
2.225003,-0.4253754,1,-0.317378,-0.01483075,0,0,0,0,0,0,0,0,0,0,0,0,0,0,0,0,0,-0.04321289,-0.9875488,-0.2260742,0,0,0,0,0,0
2.230004,-0.3766855,1,-0.3450399,-0.01526725,0,0,0,0,0,0,0,0,0,0,0,0,0,0,-0.01699222,-0.01099496,-0.03848238,-0.03674316,-0.9920654,-0.21875,0,0,0,0,0,0
2.235004,-0.3524597,1,-0.3634827,-0.01553345,0,0,0,0,0,0,0,0,0,0,0,0,0,0,0,0,0,-0.03112793,-0.9945068,-0.2205811,0,0,0,0,0,0
2.240004,-0.3283107,1,-0.3727046,-0.01565986,0,0,0,0,0,0,0,0,0,0,0,0,0,0,0,0,0,-0.03027344,-0.9920654,-0.2210693,0,0,0,0,0,0
2.245004,-0.2802319,1,-0.3911491,-0.01590037,0,0,0,0,0,0,0,0,0,0,0,0,0,0,0,0,0,-0.02185059,-0.9884033,-0.2255859,0,0,0,0,0,0
2.250004,-0.2562958,1,-0.4003717,-0.01601487,0,0,0,0,0,0,0,0,0,0,0,0,0,0,0,0,0,-0.02087402,-0.9837646,-0.2269287,0,0,0,0,0,0
2.255004,-0.2324234,1,-0.4003717,-0.01601487,0,0,0,0,0,0,0,0,0,0,0,0,0,0,0,0,0,-0.02355957,-0.9844971,-0.2232666,0,0,0,0,0,0
2.260004,-0.1927661,1,-0.4095071,-0.009673396,0,0,0,0,0,0,0,0,0,0,0,0,0,0,-0.01430085,-0.004843837,-0.01983666,-0.02490234,-0.9781494,-0.2249756,0,0,0,0,0,0
2.265004,-0.1769445,1,-0.4095071,-0.009673396,0,0,0,0,0,0,0,0,0,0,0,0,0,0,0,0,0,-0.02856445,-0.973999,-0.2211914,0,0,0,0,0,0
2.270005,-0.1532514,1,-0.4186904,-0.003245662,0,0,0,0,0,0,0,0,0,0,0,0,0,0,0,0,0,-0.03063965,-0.9692383,-0.2189941,0,0,0,0,0,0
2.275005,-0.113854,1,-0.4187329,0.009737972,0,0,0,0,0,0,0,0,0,0,0,0,0,0,-0.008995879,0.00224897,-0.008995879,-0.03173828,-0.975708,-0.2186279,0,0,0,0,0,0
2.280005,-0.09812176,1,-0.4188176,0.01623324,0,0,0,0,0,0,0,0,0,0,0,0,0,0,0,0,0,-0.0357666,-0.9772949,-0.2214355,0,0,0,0,0,0
2.285005,-0.08240198,1,-0.4188176,0.01623324,0,0,0,0,0,0,0,0,0,0,0,0,0,0,0,0,0,-0.03674316,-0.982666,-0.230957,0,0,0,0,0,0
2.290005,-0.05099206,1,-0.4189444,0.02273341,0,0,0,0,0,0,0,0,0,0,0,0,0,0,-0.001153294,0.004613177,0.007611744,-0.04284668,-0.9953613,-0.2429199,0,0,0,0,0,0
2.295005,-0.035298,1,-0.4189444,0.02273341,0,0,0,0,0,0,0,0,0,0,0,0,0,0,0,0,0,-0.04064941,-1.001465,-0.24646,0,0,0,0,0,0
2.300005,-0.01960851,1,-0.4189444,0.02273341,0,0,0,0,0,0,0,0,0,0,0,0,0,0,0,0,0,-0.03515625,-1.003662,-0.2509766,0,0,0,0,0,0
2.305005,0.003921574,1,-0.4189444,0.02273341,0,0,0,0,0,0,0,0,0,0,0,0,0,0,0,0,0,-0.02770996,-1.005859,-0.24646,0,0,0,0,0,0
2.310005,0.01960851,1,-0.4189444,0.02273341,0,0,0,0,0,0,0,0,0,0,0,0,0,0,0,0,0,-0.03393555,-1.003174,-0.2412109,0,0,0,0,0,0
2.315006,0.04314433,1,-0.4098994,0.02904799,0,0,0,0,0,0,0,0,0,0,0,0,0,0,0.003748894,0,0.03349012,-0.009521484,-1.000366,-0.2318115,0,0,0,0,0,0
2.320006,0.05099206,1,-0.4006863,0.02884942,0,0,0,0,0,0,0,0,0,0,0,0,0,0,0,0,0,-0.009643555,-0.9790039,-0.2302246,0,0,0,0,0,0
2.325006,0.06669273,1,-0.382501,0.03477282,0,0,0,0,0,0,0,0,0,0,0,0,0,0,0,0,0,-0.01708984,-0.9725342,-0.2320557,0,0,0,0,0,0
2.330006,0.08240198,1,-0.3460237,0.03980804,0,0,0,0,0,0,0,0,0,0,0,0,0,0,0.01199548,-0.0004998118,0.02998871,-0.03186035,-0.9754639,-0.2426758,0,0,0,0,0,0
2.335006,0.1059862,1,-0.2914186,0.04327999,0,0,0,0,0,0,0,0,0,0,0,0,0,0,0,0,0,-0.0456543,-0.9682617,-0.2303467,0,0,0,0,0,0
2.340006,0.1217254,1,-0.246369,0.04602497,0,0,0,0,0,0,0,0,0,0,0,0,0,0,0.008246223,0,0.01499313,-0.02905273,-0.9545898,-0.2208252,0,0,0,0,0,0
2.345006,0.1296006,1,-0.2191132,0.04382265,0,0,0,0,0,0,0,0,0,0,0,0,0,0,0,0,0,-0.03491211,-0.9547119,-0.2182617,0,0,0,0,0,0
2.350006,0.1374799,1,-0.2009946,0.04218405,0,0,0,0,0,0,0,0,0,0,0,0,0,0,0,0,0,-0.03466797,-0.96521,-0.2188721,0,0,0,0,0,0
2.355006,0.1611441,1,-0.1649219,0.03840646,0,0,0,0,0,0,0,0,0,0,0,0,0,0,0,0,0,-0.04382324,-0.9803467,-0.2164307,0,0,0,0,0,0
2.360007,0.1690417,1,-0.1559467,0.03733934,0,0,0,0,0,0,0,0,0,0,0,0,0,0,0,0,0,-0.05187988,-0.9958496,-0.2099609,0,0,0,0,0,0
2.365007,0.2006854,1,-0.1380615,0.03503053,0,0,0,0,0,0,0,0,0,0,0,0,0,0,-0.02823707,-0.0007496566,-0.003748283,-0.05688477,-1.005981,-0.2011719,0,0,0,0,0,0
2.370007,0.2086106,1,-0.1380615,0.03503053,0,0,0,0,0,0,0,0,0,0,0,0,0,0,0,0,0,-0.05554199,-0.9848633,-0.2058105,0,0,0,0,0,0
2.375007,0.2324234,1,-0.1380615,0.03503053,0,0,0,0,0,0,0,0,0,0,0,0,0,0,0,0,0,-0.04614258,-0.9769287,-0.2089844,0,0,0,0,0,0
2.380007,0.2642672,1,-0.1380615,0.03503053,0,0,0,0,0,0,0,0,0,0,0,0,0,0,-0.03459883,0.003229225,-0.003921201,-0.03039551,-0.9724121,-0.2236328,0,0,0,0,0,0
2.385007,0.2882255,1,-0.1380615,0.03503053,0,0,0,0,0,0,0,0,0,0,0,0,0,0,0,0,0,-0.02307129,-0.970459,-0.2287598,0,0,0,0,0,0
2.390007,0.3122526,1,-0.1380615,0.03503053,0,0,0,0,0,0,0,0,0,0,0,0,0,0,0,0,0,-0.01513672,-0.9644775,-0.2401123,0,0,0,0,0,0
2.395007,0.3524597,1,-0.1380615,0.03503053,0,0,0,0,0,0,0,0,0,0,0,0,0,0,-0.03448702,0.00674746,-0.005747836,-0.01330566,-0.9624023,-0.246582,0,0,0,0,0,0
2.400007,0.3766855,1,-0.1380615,0.03503053,0,0,0,0,0,0,0,0,0,0,0,0,0,0,0,0,0,-0.01782227,-0.9609375,-0.2518311,0,0,0,0,0,0
2.405008,0.4091095,1,-0.1380615,0.03503053,0,0,0,0,0,0,0,0,0,0,0,0,0,0,0,0,0,-0.01647949,-0.9525146,-0.2503662,0,0,0,0,0,0
2.410008,0.4498426,1,-0.1380615,0.03503053,0,0,0,0,0,0,0,0,0,0,0,0,0,0,-0.01749199,0.008496109,-0.007496567,-0.01940918,-0.9752197,-0.2513428,0,0,0,0,0,0
2.415008,0.4662001,1,-0.1380615,0.03503053,0,0,0,0,0,0,0,0,0,0,0,0,0,0,0,0,0,-0.0267334,-0.9741211,-0.2462158,0,0,0,0,0,0
2.420008,0.4825947,1,-0.1380615,0.03503053,0,0,0,0,0,0,0,0,0,0,0,0,0,0,0,0,0,-0.02612305,-0.9785156,-0.2441406,0,0,0,0,0,0
2.425008,0.531496,1,-0.1380615,0.03503053,0,0,0,0,0,0,0,0,0,0,0,0,0,0,0,0,0,-0.03320313,-0.9899902,-0.2410889,0,0,0,0,0,0
2.430008,0.5713281,0.9868394,-0.1380615,0.03503053,0,0,0,0,0,0,0,0,0,0,0,0,0,0,-0.005305622,0.009227169,-0.008765811,-0.03015137,-0.989502,-0.2416992,0,0,0,0,0,0
2.435008,0.5957312,0.979558,-0.1380615,0.03503053,0,0,0,0,0,0,0,0,0,0,0,0,0,0,0,0,0,-0.03405762,-0.9962158,-0.2419434,0,0,0,0,0,0
2.440008,0.6430523,0.9386168,-0.1380615,0.03503053,0,0,0,0,0,0,0,0,0,0,0,0,0,0,-0.002306589,0.006689108,-0.00207593,-0.03149414,-0.9875488,-0.2473145,0,0,0,0,0,0
2.445009,0.6676687,0.9315377,-0.1380615,0.03503053,0,0,0,0,0,0,0,0,0,0,0,0,0,0,0,0,0,-0.0333252,-0.9881592,-0.2435303,0,0,0,0,0,0
2.450009,0.6833416,0.9151183,-0.1380615,0.03503053,0,0,0,0,0,0,0,0,0,0,0,0,0,0,0,0,0,-0.0333252,-0.9898682,-0.2438965,0,0,0,0,0,0
2.455009,0.7232483,0.8830822,-0.1380615,0.03503053,0,0,0,0,0,0,0,0,0,0,0,0,0,0,0,0,0,-0.0300293,-0.9920654,-0.2474365,0,0,0,0,0,0
2.460009,0.7396386,0.8755721,-0.1380615,0.03503053,0,0,0,0,0,0,0,0,0,0,0,0,0,0,0,0,0,-0.02856445,-0.9943848,-0.24646,0,0,0,0,0,0
2.465009,0.772543,0.8606049,-0.1369043,0.03065021,0,0,0,0,0,0,0,0,0,0,0,0,0,0,0.006996796,0.00449794,0.008745994,-0.03295898,-0.989624,-0.2537842,0,0,0,0,0,0
2.470009,0.7798811,0.8438712,-0.1449196,0.02730369,0,0,0,0,0,0,0,0,0,0,0,0,0,0,0,0,0,-0.0402832,-0.9849854,-0.258667,0,0,0,0,0,0
2.475009,0.8037875,0.8197833,-0.1531763,0.02373154,0,0,0,0,0,0,0,0,0,0,0,0,0,0,0.01199451,0.005497482,0.004248055,-0.03442383,-0.9973145,-0.24646,0,0,0,0,0,0
2.480009,0.8117793,0.8117793,-0.1708072,0.02049686,0,0,0,0,0,0,0,0,0,0,0,0,0,0,0,0,0,-0.03918457,-1.00354,-0.2375488,0,0,0,0,0,0
2.485009,0.8197833,0.8037875,-0.1886933,0.01671966,0,0,0,0,0,0,0,0,0,0,0,0,0,0,0,0,0,-0.04260254,-1.003662,-0.2331543,0,0,0,0,0,0
2.49001,0.8352143,0.779267,-0.2436337,0.01338647,0,0,0,0,0,0,0,0,0,0,0,0,0,0,0,0,0,-0.046875,-1.007202,-0.22229,0,0,0,0,0,0
2.49501,0.8432577,0.771321,-0.2711339,0.008385586,0,0,0,0,0,0,0,0,0,0,0,0,0,0,0,0,0,-0.0501709,-1.009644,-0.2226563,0,0,0,0,0,0
2.50001,0.8674718,0.7475448,-0.3264129,0,0,0,0,0,0,0,0,0,0,0,0,0,0,0,-0.01660891,0.007151056,-0.008304453,-0.05102539,-1.010986,-0.2286377,0,0,0,0,0,0
2.50501,0.8749644,0.7311347,-0.3633282,-0.00310537,0,0,0,0,0,0,0,0,0,0,0,0,0,0,0,0,0,-0.0423584,-1.011108,-0.2307129,0,0,0,0,0,0
2.51001,0.8830822,0.7232483,-0.3910559,-0.009537949,0,0,0,0,0,0,0,0,0,0,0,0,0,0,0,0,0,-0.03710938,-1.015137,-0.2352295,0,0,0,0,0,0
2.51501,0.8993645,0.7075,-0.4556364,-0.009977438,0,0,0,0,0,0,0,0,0,0,0,0,0,0,-0.03348466,0.006247139,-0.01699222,-0.04052734,-1.015381,-0.2325439,0,0,0,0,0,0
2.52001,0.9075292,0.6996371,-0.4740884,-0.01008699,0,0,0,0,0,0,0,0,0,0,0,0,0,0,0,0,0,-0.03674316,-1.012329,-0.2297363,0,0,0,0,0,0
2.52501,0.9069334,0.6911871,-0.5109931,-0.01028845,0,0,0,0,0,0,0,0,0,0,0,0,0,0,0,0,0,-0.03771973,-1.00354,-0.2358398,0,0,0,0,0,0
2.53001,0.9233196,0.6755022,-0.5664057,-0.01759024,0,0,0,0,0,0,0,0,0,0,0,0,0,0,-0.03723295,-0.0004997711,-0.02698764,-0.03686523,-0.9835205,-0.2318115,0,0,0,0,0,0
2.535011,0.922732,0.6670833,-0.6033068,-0.01784931,0,0,0,0,0,0,0,0,0,0,0,0,0,0,0,0,0,-0.04272461,-0.9682617,-0.2293701,0,0,0,0,0,0
2.540011,0.9309547,0.6592598,-0.6402088,-0.01808499,0,0,0,0,0,0,0,0,0,0,0,0,0,0,0,0,0,-0.05175781,-0.956543,-0.2269287,0,0,0,0,0,0
2.545011,0.9391946,0.6514414,-0.7232413,-0.01854465,0,0,0,0,0,0,0,0,0,0,0,0,0,0,0,0,0,-0.04431152,-0.9544678,-0.2324219,0,0,0,0,0,0
2.550011,0.9386168,0.6430523,-0.7693719,-0.01876517,0,0,0,0,0,0,0,0,0,0,0,0,0,0,0,0,0,-0.03686523,-0.9543457,-0.2468262,0,0,0,0,0,0
2.555011,0.9380392,0.6346734,-0.8247297,-0.01900299,0,0,0,0,0,0,0,0,0,0,0,0,0,0,0,0,0,-0.03112793,-0.9619141,-0.2530518,0,0,0,0,0,0
2.560011,0.9545932,0.6190876,-0.9169943,-0.01934587,0,0,0,0,0,0,0,0,0,0,0,0,0,0,0,0,0,-0.01696777,-0.9683838,-0.2695313,0,0,0,0,0,0
2.565011,0.954028,0.6107376,-0.9631273,-0.0194965,0,0,0,0,0,0,0,0,0,0,0,0,0,0,0,0,0,-0.01391602,-0.970459,-0.2728271,0,0,0,0,0,0
2.570011,0.9617803,0.5946276,-1,-0.01176485,0,0,0,0,0,0,0,0,0,0,0,0,0,0,-0.03923203,-0.007746452,-0.03423432,-0.007324219,-0.9694824,-0.272583,0,0,0,0,0,0
2.575011,0.9701149,0.5868597,-1,-0.01176485,0,0,0,0,0,0,0,0,0,0,0,0,0,0,0,0,0,0.006591797,-0.9720459,-0.2613525,0,0,0,0,0,0
2.580012,0.9695654,0.5785473,-1,0,0,0,0,0,0,0,0,0,0,0,0,0,0,0,0,0,0,0.03625488,-0.9716797,-0.2775879,0,0,0,0,0,0
2.585012,0.9779255,0.5707892,-1,0.04314433,0,0,0,0,0,0,0,0,0,0,0,0,0,0,-0.01776074,-0.008765038,-0.01614612,-0.00769043,-0.9559326,-0.2825928,0,0,0,0,0,0
2.590012,0.9863042,0.563032,-1,0.05884144,0,0,0,0,0,0,0,0,0,0,0,0,0,0,0,0,0,-0.007446289,-0.9449463,-0.2780762,0,0,0,0,0,0
2.595012,0.9857708,0.5547456,-1,0.07454614,0,0,0,0,0,0,0,0,0,0,0,0,0,0,0,0,0,-0.005249023,-0.9555664,-0.2667236,0,0,0,0,0,0
2.600012,0.9936524,0.5387272,-1,0.09026043,0,0,0,0,0,0,0,0,0,0,0,0,0,0,0.0009995422,-0.006247139,-0.003748283,-0.01428223,-0.9787598,-0.2462158,0,0,0,0,0,0
2.605012,0.9926133,0.5222183,-1,0.09812176,0,0,0,0,0,0,0,0,0,0,0,0,0,0,0,0,0,-0.01916504,-0.9881592,-0.2438965,0,0,0,0,0,0
2.610012,1,0.5144897,-1,0.1059862,0,0,0,0,0,0,0,0,0,0,0,0,0,0,0.0007496566,-0.002998627,0.01049519,-0.01367188,-0.9969482,-0.2441406,0,0,0,0,0,0
2.615012,1,0.5144897,-1,0.113854,0,0,0,0,0,0,0,0,0,0,0,0,0,0,0,0,0,-0.006835938,-0.9846191,-0.2416992,0,0,0,0,0,0
2.620013,1,0.5062566,-1,0.113854,0,0,0,0,0,0,0,0,0,0,0,0,0,0,0,0,0,-0.002685547,-0.97229,-0.2451172,0,0,0,0,0,0
2.625013,1,0.5067592,-1,0.1217254,0,0,0,0,0,0,0,0,0,0,0,0,0,0,0.001614612,0,0.01153294,0.0002441406,-0.9578857,-0.253418,0,0,0,0,0,0
2.630013,1,0.4985325,-1,0.1217254,0,0,0,0,0,0,0,0,0,0,0,0,0,0,0,0,0,0.01269531,-0.9532471,-0.2525635,0,0,0,0,0,0
2.635013,1,0.4985325,-1,0.1296006,0,0,0,0,0,0,0,0,0,0,0,0,0,0,0,0,0,-0.008789063,-0.9580078,-0.2485352,0,0,0,0,0,0
2.640013,1,0.4985325,-1,0.1296006,0,0,0,0,0,0,0,0,0,0,0,0,0,0,0,0,0,-0.00793457,-0.9686279,-0.2572021,0,0,0,0,0,0
2.645013,1,0.4903153,-1,0.1296006,0,0,0,0,0,0,0,0,0,0,0,0,0,0,0,0,0,-0.005004883,-0.9777832,-0.262085,0,0,0,0,0,0
2.650013,1,0.4903153,-1,0.1296006,0,0,0,0,0,0,0,0,0,0,0,0,0,0,0,0,0,-0.008178711,-0.9798584,-0.2630615,0,0,0,0,0,0
2.655013,1,0.4903153,-1,0.1296006,0,0,0,0,0,0,0,0,0,0,0,0,0,0,0,0,0,-0.01123047,-0.9870605,-0.2585449,0,0,0,0,0,0
2.660013,1,0.4903153,-1,0.1296006,0,0,0,0,0,0,0,0,0,0,0,0,0,0,0,0,0,-0.01416016,-0.9822998,-0.2519531,0,0,0,0,0,0
2.665014,1,0.4903153,-1,0.1296006,0,0,0,0,0,0,0,0,0,0,0,0,0,0,0.01974096,-0.003998169,0.002748741,-0.02490234,-0.9711914,-0.2623291,0,0,0,0,0,0
2.670014,1,0.4903153,-1,0.1296006,0,0,0,0,0,0,0,0,0,0,0,0,0,0,0,0,0,-0.02624512,-0.9696045,-0.2626953,0,0,0,0,0,0
2.675014,1,0.4903153,-1,0.1296006,0,0,0,0,0,0,0,0,0,0,0,0,0,0,0,0,0,-0.02331543,-0.9663086,-0.2631836,0,0,0,0,0,0
2.680014,1,0.4985325,-1,0.1296006,0,0,0,0,0,0,0,0,0,0,0,0,0,0,0.02606216,-0.005074048,0.0009225542,-0.01623535,-0.9672852,-0.2550049,0,0,0,0,0,0
2.685014,1,0.4980331,-1,0.1296006,0,0,0,0,0,0,0,0,0,0,0,0,0,0,0,0,0,-0.008544922,-0.9682617,-0.2545166,0,0,0,0,0,0
2.690014,1,0.5144897,-1,0.1296006,0,0,0,0,0,0,0,0,0,0,0,0,0,0,0,0,0,-0.007324219,-0.9735107,-0.2463379,0,0,0,0,0,0
2.695014,0.976846,0.5542106,-1,0.1296006,0,0,0,0,0,0,0,0,0,0,0,0,0,0,0,0,0,-0.004638672,-0.980835,-0.2419434,0,0,0,0,0,0
2.700014,0.9606686,0.5779957,-1,0.1296006,0,0,0,0,0,0,0,0,0,0,0,0,0,0,0,0,0,-0.001098633,-0.9766846,-0.2509766,0,0,0,0,0,0
2.705014,0.9451655,0.6101702,-1,0.113854,0,0,0,0,0,0,0,0,0,0,0,0,0,0,0,0,0,-0.0004882813,-0.9814453,-0.2474365,0,0,0,0,0,0
2.710015,0.8975631,0.682148,-1,0.09026043,0,0,0,0,0,0,0,0,0,0,0,0,0,0,0,0,0,-0.003662109,-0.9904785,-0.2412109,0,0,0,0,0,0
2.715015,0.8737444,0.7141563,-1,0.07454614,0,0,0,0,0,0,0,0,0,0,0,0,0,0,0,0,0,-0.004516602,-0.9884033,-0.2490234,0,0,0,0,0,0
2.720015,0.8185484,0.7866051,-1,0.05099206,0,0,0,0,0,0,0,0,0,0,0,0,0,0,0.05351286,0.00207593,0.01037965,-0.01818848,-0.9836426,-0.2576904,0,0,0,0,0,0
2.725015,0.7951917,0.8191673,-1,0.04314433,0,0,0,0,0,0,0,0,0,0,0,0,0,0,0,0,0,-0.0213623,-0.9891357,-0.2631836,0,0,0,0,0,0
2.730015,0.7633857,0.8513149,-1,0.035298,0,0,0,0,0,0,0,0,0,0,0,0,0,0,0,0,0,-0.01928711,-0.9864502,-0.2634277,0,0,0,0,0,0
2.735015,0.7402433,0.8842907,-0.9908403,0.02741455,0,0,0,0,0,0,0,0,0,0,0,0,0,0,0,0,0,-0.02294922,-0.9812012,-0.260376,0,0,0,0,0,0
2.740015,0.6833416,0.9151183,-0.9354475,0.01940762,0,0,0,0,0,0,0,0,0,0,0,0,0,0,0,0,0,-0.03222656,-0.9680176,-0.2530518,0,0,0,0,0,0
2.745015,0.6676687,0.9315377,-0.8985412,0.019282,0,0,0,0,0,0,0,0,0,0,0,0,0,0,0,0,0,-0.03381348,-0.9682617,-0.2470703,0,0,0,0,0,0
2.750015,0.6112997,0.9628969,-0.8339561,0.01904009,0,0,0,0,0,0,0,0,0,0,0,0,0,0,0,0,0,-0.04309082,-0.9781494,-0.2357178,0,0,0,0,0,0
2.755016,0.5874074,0.9790122,-0.7970507,0.01888746,0,0,0,0,0,0,0,0,0,0,0,0,0,0,0,0,0,-0.04748535,-0.9816895,-0.2302246,0,0,0,0,0,0
2.760016,0.5309846,1,-0.7047894,0.01844999,0,0,0,0,0,0,0,0,0,0,0,0,0,0,0.07446589,0.0009995422,0.01524302,-0.04541016,-0.989502,-0.2318115,0,0,0,0,0,0
2.765016,0.5067592,1,-0.6586601,0.01819503,0,0,0,0,0,0,0,0,0,0,0,0,0,0,0,0,0,-0.03747559,-0.9941406,-0.2287598,0,0,0,0,0,0
2.770016,0.4908059,1,-0.6125321,0.0179103,0,0,0,0,0,0,0,0,0,0,0,0,0,0,0,0,0,-0.0369873,-0.9956055,-0.225708,0,0,0,0,0,0
2.775016,0.4662001,1,-0.5202813,0.01722785,0,0,0,0,0,0,0,0,0,0,0,0,0,0,0,0,0,-0.03417969,-1.001953,-0.2086182,0,0,0,0,0,0
2.780016,0.4580168,1,-0.4741593,0.01681416,0,0,0,0,0,0,0,0,0,0,0,0,0,0,0,0,0,-0.0378418,-1.001831,-0.1999512,0,0,0,0,0,0
2.785016,0.4416777,1,-0.3912885,0.02226845,0,0,0,0,0,0,0,0,0,0,0,0,0,0,0.04173089,-0.001749199,0.01149474,-0.03564453,-1.00708,-0.2009277,0,0,0,0,0,0
2.790016,0.4416777,1,-0.3544206,0.02157343,0,0,0,0,0,0,0,0,0,0,0,0,0,0,0,0,0,-0.03076172,-1.005737,-0.1999512,0,0,0,0,0,0
2.795017,0.433522,1,-0.2994011,0.02616126,0,0,0,0,0,0,0,0,0,0,0,0,0,0,0,0,0,-0.03137207,-1.001343,-0.2012939,0,0,0,0,0,0
2.800017,0.4253754,1,-0.2258503,0.02336382,0,0,0,0,0,0,0,0,0,0,0,0,0,0,0.02673776,-0.003248512,0.003748283,-0.02282715,-1.00061,-0.2158203,0,0,0,0,0,0
2.805017,0.4253754,1,-0.1708072,0.02049686,0,0,0,0,0,0,0,0,0,0,0,0,0,0,0,0,0,-0.02746582,-0.9969482,-0.2225342,0,0,0,0,0,0
2.810017,0.4253754,1,-0.1342122,0.01802851,0,0,0,0,0,0,0,0,0,0,0,0,0,0,0,0,0,-0.02355957,-1.001709,-0.2121582,0,0,0,0,0,0
2.815017,0.4253754,1,-0.02565748,0.005370171,0,0,0,0,0,0,0,0,0,0,0,0,0,0,0,0,0,-0.03222656,-1.002563,-0.208374,0,0,0,0,0,0
2.820017,0.4253754,1,0,0,0,0,0,0,0,0,0,0,0,0,0,0,0,0,0,0,0,-0.0324707,-1.005127,-0.2080078,0,0,0,0,0,0
2.825017,0.4172379,1,0,0,0,0,0,0,0,0,0,0,0,0,0,0,0,0,0.01524302,-0.003248512,-0.008496109,-0.03967285,-0.9927979,-0.21521,0,0,0,0,0,0
2.830017,0.4172379,1,0,0,0,0,0,0,0,0,0,0,0,0,0,0,0,0,0,0,0,-0.05004883,-0.9992676,-0.1962891,0,0,0,0,0,0
2.835017,0.4172379,1,0,0,0,0,0,0,0,0,0,0,0,0,0,0,0,0,0,0,0,-0.05041504,-1.000366,-0.1915283,0,0,0,0,0,0
2.840018,0.4172379,1,0,0,0,0,0,0,0,0,0,0,0,0,0,0,0,0,0.0007496566,-0.001249428,-0.01674233,-0.04309082,-1.010498,-0.1977539,0,0,0,0,0,0
2.845018,0.4172379,1,0,0,0,0,0,0,0,0,0,0,0,0,0,0,0,0,-0.002767174,-0.0009223914,-0.01614185,-0.0357666,-1.014282,-0.204834,0,0,0,0,0,0
2.850018,0.4172379,1,0,0,0,0,0,0,0,0,0,0,0,0,0,0,0,0,-0.0129169,-0.001845271,-0.01776074,-0.03125,-1.007202,-0.2116699,0,0,0,0,0,0
2.855018,0.4172379,1,0,0,0,0,0,0,0,0,0,0,0,0,0,0,0,0,0,0,0,-0.0324707,-1.003174,-0.2077637,0,0,0,0,0,0
2.860018,0.4172379,1,0,0,0,0,0,0,0,0,0,0,0,0,0,0,0,0,0,0,0,-0.03112793,-0.9998779,-0.2033691,0,0,0,0,0,0
2.865018,0.4172379,1,0,0,0,0,0,0,0,0,0,0,0,0,0,0,0,0,0,0,0,-0.03100586,-0.9968262,-0.2122803,0,0,0,0,0,0
2.870018,0.4172379,1,0,0,0,0,0,0,0,0,0,0,0,0,0,0,0,0,0,0,0,-0.0255127,-0.9901123,-0.2191162,0,0,0,0,0,0
2.875018,0.433522,1,0,0,0,0,0,0,0,0,0,0,0,0,0,0,0,0,-0.02223982,-0.0002498855,-0.01824165,-0.01013184,-0.9899902,-0.2214355,0,0,0,0,0,0
2.880018,0.433522,1,0,0,0,0,0,0,0,0,0,0,0,0,0,0,0,0,0,0,0,-0.01013184,-0.9769287,-0.2276611,0,0,0,0,0,0
2.885019,0.4416777,1,0,0,0,0,0,0,0,0,0,0,0,0,0,0,0,0,0,0,0,-0.009399414,-0.9727783,-0.229126,0,0,0,0,0,0
2.890019,0.4565729,0.9885796,0,0,0,0,0,0,0,0,0,0,0,0,0,0,0,0,-0.009745537,0,-0.0154929,-0.002807617,-0.9801025,-0.2272949,0,0,0,0,0,0
2.895019,0.4555815,0.9705868,0,0,0,0,0,0,0,0,0,0,0,0,0,0,0,0,0,0,0,-0.002197266,-0.9815674,-0.2261963,0,0,0,0,0,0
2.900019,0.4627222,0.9531286,0,0,0,0,0,0,0,0,0,0,0,0,0,0,0,0,0,0,0,-0.004272461,-0.9779053,-0.2196045,0,0,0,0,0,0
2.905019,0.4774629,0.927304,0,0,0,0,0,0,0,0,0,0,0,0,0,0,0,0,-0.004997711,0,-0.01224439,-0.01330566,-0.9814453,-0.2193604,0,0,0,0,0,0
2.910019,0.4927162,0.9105396,0,0,0,0,0,0,0,0,0,0,0,0,0,0,0,0,0,0,0,-0.01696777,-0.9891357,-0.2205811,0,0,0,0,0,0
2.915019,0.4997664,0.8932832,0,0,0,0,0,0,0,0,0,0,0,0,0,0,0,0,0,0,0,-0.01867676,-0.9927979,-0.2178955,0,0,0,0,0,0
2.920019,0.5137931,0.8589365,0,0,0,0,0,0,0,0,0,0,0,0,0,0,0,0,0,0,0,-0.01184082,-0.9954834,-0.2172852,0,0,0,0,0,0
2.92502,0.5213934,0.8506944,0,0,0,0,0,0,0,0,0,0,0,0,0,0,0,0,0,0,0,-0.01049805,-0.9949951,-0.2156982,0,0,0,0,0,0
2.93002,0.5366015,0.8342783,0,0,0,0,0,0,0,0,0,0,0,0,0,0,0,0,0,0,0,-0.01623535,-0.9906006,-0.2175293,0,0,0,0,0,0
2.93502,0.5511723,0.8091677,0,0,0,0,0,0,0,0,0,0,0,0,0,0,0,0,0,0,0,-0.0177002,-0.9974365,-0.2137451,0,0,0,0,0,0
2.94002,0.5587841,0.8010541,0,0,0,0,0,0,0,0,0,0,0,0,0,0,0,0,0,0,0,-0.01538086,-0.9974365,-0.2131348,0,0,0,0,0,0
2.94502,0.5581182,0.7922937,0,0,0,0,0,0,0,0,0,0,0,0,0,0,0,0,0,0,0,-0.01794434,-1.000488,-0.2163086,0,0,0,0,0,0
2.95002,0.574699,0.7936319,0,0,0,0,0,0,0,0,0,0,0,0,0,0,0,0,0,0,0,-0.005737305,-0.9997559,-0.2333984,0,0,0,0,0,0
2.95502,0.5740268,0.7848938,0,0,0,0,0,0,0,0,0,0,0,0,0,0,0,0,0,0,0,0.001342773,-0.9949951,-0.236084,0,0,0,0,0,0
2.96002,0.5823371,0.785569,0,0,0,0,0,0,0,0,0,0,0,0,0,0,0,0,-0.008246223,-0.00449794,0.01274416,0.01867676,-0.9849854,-0.239624,0,0,0,0,0,0
2.96502,0.5823371,0.785569,0,0,0,0,0,0,0,0,0,0,0,0,0,0,0,0,0,0,0,0.01513672,-0.987793,-0.2457275,0,0,0,0,0,0
2.970021,0.5823371,0.785569,0,0,0,0,0,0,0,0,0,0,0,0,0,0,0,0,0,0,0,0.002807617,-0.9931641,-0.248291,0,0,0,0,0,0
2.975021,0.5823371,0.785569,0,0,0,0,0,0,0,0,0,0,0,0,0,0,0,0,0,0,0,-0.02099609,-0.9967041,-0.2358398,0,0,0,0,0,0
2.980021,0.5823371,0.785569,0,0,0,0,0,0,0,0,0,0,0,0,0,0,0,0,0,0,0,-0.03344727,-0.9943848,-0.2191162,0,0,0,0,0,0
2.985021,0.5823371,0.785569,0,0,0,0,0,0,0,0,0,0,0,0,0,0,0,0,0,0,0,-0.0390625,-0.9864502,-0.2001953,0,0,0,0,0,0
2.990021,0.5823371,0.785569,-0.1519472,0.01498071,0,0,0,0,0,0,0,0,0,0,0,0,0,0,0,0,0,-0.03344727,-0.980957,-0.1798096,0,0,0,0,0,0
2.995021,0.5823371,0.785569,-0.234684,0.0184583,0,0,0,0,0,0,0,0,0,0,0,0,0,0,0,0,0,-0.0357666,-0.9813232,-0.1828613,0,0,0,0,0,0
3.000021,0.574699,0.7936319,-0.3175621,0.02077509,0,0,0,0,0,0,0,0,0,0,0,0,0,0,0,0,0,-0.03540039,-0.9802246,-0.1962891,0,0,0,0,0,0
3.005021,0.5600961,0.8186021,-0.4832757,0,0,0,0,0,0,0,0,0,0,0,0,0,0,0,0,0,0,-0.02722168,-0.972168,-0.2271729,0,0,0,0,0,0
3.010021,0.5454812,0.8437298,-0.5571249,-0.01051179,0,0,0,0,0,0,0,0,0,0,0,0,0,0,0,0,0,-0.02441406,-0.9787598,-0.2333984,0,0,0,0,0,0
3.015022,0.5149983,0.8766764,-0.6957015,-0.03312864,0,0,0,0,0,0,0,0,0,0,0,0,0,0,-0.02224163,-0.002998871,-0.004248401,-0.02502441,-0.9771729,-0.2404785,0,0,0,0,0,0
3.020022,0.4921506,0.9016199,-0.7603508,-0.04120127,0,0,0,0,0,0,0,0,0,0,0,0,0,0,0,0,0,-0.02075195,-0.9755859,-0.2391357,0,0,0,0,0,0
3.025022,0.4611413,0.9262241,-0.8249986,-0.04942388,0,0,0,0,0,0,0,0,0,0,0,0,0,0,0,0,0,-0.01403809,-0.9744873,-0.2352295,0,0,0,0,0,0
3.030022,0.3987165,0.9671836,-0.9174073,-0.06580558,0,0,0,0,0,0,0,0,0,0,0,0,0,0,-0.01568481,-0.003690542,-0.01014899,-0.01428223,-0.9881592,-0.2290039,0,0,0,0,0,0
3.035022,0.3592638,0.9830405,-0.9543922,-0.07401409,0,0,0,0,0,0,0,0,0,0,0,0,0,0,0,0,0,-0.01818848,-0.994873,-0.2340088,0,0,0,0,0,0
3.040022,0.3202776,1,-0.98216,-0.08217275,0,0,0,0,0,0,0,0,0,0,0,0,0,0,0,0,0,-0.0267334,-0.9938965,-0.2370605,0,0,0,0,0,0
3.045022,0.2324234,1,-1,-0.09026043,0,0,0,0,0,0,0,0,0,0,0,0,0,0,0,0,0,-0.02429199,-0.99646,-0.2351074,0,0,0,0,0,0
3.050022,0.1769445,1,-1,-0.09812176,0,0,0,0,0,0,0,0,0,0,0,0,0,0,0,0,0,-0.02148438,-1.004395,-0.2314453,0,0,0,0,0,0
3.055022,0.1217254,1,-1,-0.09812176,0,0,0,0,0,0,0,0,0,0,0,0,0,0,0,0,0,-0.001220703,-1.014038,-0.2303467,0,0,0,0,0,0
3.060023,0,1,-1,-0.09812176,0,0,0,0,0,0,0,0,0,0,0,0,0,0,0,0,0,-0.01586914,-1.035889,-0.2246094,0,0,0,0,0,0
3.065023,-0.07454614,1,-1,-0.09812176,0,0,0,0,0,0,0,0,0,0,0,0,0,0,0,0,0,-0.0201416,-1.017456,-0.2089844,0,0,0,0,0,0
3.070023,-0.2165419,1,-1,-0.09812176,0,0,0,0,0,0,0,0,0,0,0,0,0,0,-0.007611744,-0.001383953,0.01314756,-0.02404785,-1.012085,-0.1893311,0,0,0,0,0,0
3.075023,-0.2722459,1,-1,-0.09812176,0,0,0,0,0,0,0,0,0,0,0,0,0,0,0,0,0,-0.02978516,-1.014771,-0.1939697,0,0,0,0,0,0
3.080023,-0.3283107,1,-1,-0.09812176,0,0,0,0,0,0,0,0,0,0,0,0,0,0,0,0,0,-0.03405762,-1.015747,-0.1962891,0,0,0,0,0,0
3.085023,-0.4172379,1,-1,-0.09812176,0,0,0,0,0,0,0,0,0,0,0,0,0,0,0,0,0,-0.05078125,-1.01123,-0.1971436,0,0,0,0,0,0
3.090023,-0.4743927,1,-1,-0.09812176,0,0,0,0,0,0,0,0,0,0,0,0,0,0,0,0,0,-0.04699707,-1.016602,-0.1948242,0,0,0,0,0,0
3.095023,-0.563032,0.9863042,-1,-0.09812176,0,0,0,0,0,0,0,0,0,0,0,0,0,0,0,0,0,-0.03161621,-1.009766,-0.2105713,0,0,0,0,0,0
3.100024,-0.5946276,0.9617803,-1,-0.09812176,0,0,0,0,0,0,0,0,0,0,0,0,0,0,0,0,0,-0.02148438,-0.9956055,-0.223877,0,0,0,0,0,0
3.105024,-0.6335082,0.9203799,-1,-0.09812176,0,0,0,0,0,0,0,0,0,0,0,0,0,0,0,0,0,-0.0201416,-0.9902344,-0.2294922,0,0,0,0,0,0
3.110024,-0.6862659,0.8370064,-1,-0.09812176,0,0,0,0,0,0,0,0,0,0,0,0,0,0,0,0,0,-0.02587891,-0.9682617,-0.239502,0,0,0,0,0,0
3.115024,-0.7071623,0.7782736,-1,-0.09812176,0,0,0,0,0,0,0,0,0,0,0,0,0,0,0,0,0,-0.03039551,-0.9654541,-0.2443848,0,0,0,0,0,0
3.120024,-0.7404228,0.6620712,-0.9916281,-0.09798697,0,0,0,0,0,0,0,0,0,0,0,0,0,0,-0.01591687,-0.001153396,-0.01268736,-0.0333252,-0.9675293,-0.2338867,0,0,0,0,0,0
3.125024,-0.7355204,0.6032045,-0.9543922,-0.07401409,0,0,0,0,0,0,0,0,0,0,0,0,0,0,0,0,0,-0.03186035,-0.9776611,-0.2280273,0,0,0,0,0,0
3.130024,-0.747229,0.5381597,-0.9172199,-0.05031164,0,0,0,0,0,0,0,0,0,0,0,0,0,0,0,0,0,-0.0357666,-0.9914551,-0.2298584,0,0,0,0,0,0
3.135024,-0.7456151,0.4167797,-0.797019,0.01133202,0,0,0,0,0,0,0,0,0,0,0,0,0,0,0,0,0,-0.04248047,-1.007813,-0.2266846,0,0,0,0,0,0
3.140024,-0.740371,0.3531,-0.7142422,0.0407081,0,0,0,0,0,0,0,0,0,0,0,0,0,0,0,0,0,-0.04248047,-1.011841,-0.2279053,0,0,0,0,0,0
3.145025,-0.7418089,0.2522903,-0.5225546,0.08651566,0,0,0,0,0,0,0,0,0,0,0,0,0,0,-0.02623798,-0.007246681,-0.03298489,-0.03747559,-1.010742,-0.2333984,0,0,0,0,0,0
3.150025,-0.7475821,0.1991048,-0.3957129,0.09329816,0,0,0,0,0,0,0,0,0,0,0,0,0,0,0,0,0,-0.03967285,-1.001831,-0.2341309,0,0,0,0,0,0
3.155025,-0.754096,0.1463171,-0.1988138,0.07298227,0,0,0,0,0,0,0,0,0,0,0,0,0,0,0,0,0,-0.03491211,-1.015625,-0.2214355,0,0,0,0,0,0
3.160025,-0.760453,0.04869897,0,0,0,0,0,0,0,0,0,0,0,0,0,0,0,0,0,0,0,-0.1551514,-1.026978,-0.138916,0,0,0,0,0,0
3.165025,-0.7785488,-0.003761105,0,0,0,0,0,0,0,0,0,0,0,0,0,0,0,0,0,0,0,-0.06311035,-1.006958,-0.2167969,0,0,0,0,0,0
3.170025,-0.7882267,-0.05657129,0,0,0,0,0,0,0,0,0,0,0,0,0,0,0,0,0,0,0,-0.05004883,-1.005737,-0.2385254,0,0,0,0,0,0
3.175025,-0.8182892,-0.1484338,0,0,0,0,0,0,0,0,0,0,0,0,0,0,0,0,0,0,0,-0.004638672,-0.9870605,-0.2540283,0,0,0,0,0,0
3.180025,-0.8293635,-0.1949196,0,0,0,0,0,0,0,0,0,0,0,0,0,0,0,0,0,0,0,0.006469727,-0.9912109,-0.2686768,0,0,0,0,0,0
3.185025,-0.8524981,-0.2893093,0,0,0,0,0,0,0,0,0,0,0,0,0,0,0,0,-0.05947276,-0.0154929,-0.03098581,-0.003417969,-0.9794922,-0.2576904,0,0,0,0,0,0
3.190026,-0.8649356,-0.3451985,0,0,0,0,0,0,0,0,0,0,0,0,0,0,0,0,0,0,0,-0.01196289,-0.9702148,-0.2596436,0,0,0,0,0,0
3.195026,-0.8765361,-0.3856759,0,0,0,0,0,0,0,0,0,0,0,0,0,0,0,0,0,0,0,-0.01477051,-0.9663086,-0.267334,0,0,0,0,0,0
3.200026,-0.8921323,-0.483402,0,0,0,0,0,0,0,0,0,0,0,0,0,0,0,0,-0.04947734,-0.01699222,-0.03023615,-0.01672363,-0.9575195,-0.2495117,0,0,0,0,0,0
3.205026,-0.9044961,-0.5332183,0,0,0,0,0,0,0,0,0,0,0,0,0,0,0,0,0,0,0,-0.01904297,-0.9584961,-0.2572021,0,0,0,0,0,0
3.210026,-0.9080103,-0.5828713,0,0,0,0,0,0,0,0,0,0,0,0,0,0,0,0,0,0,0,-0.0135498,-0.9605713,-0.2626953,0,0,0,0,0,0
3.215026,-0.8939448,-0.631721,0,0,0,0,0,0,0,0,0,0,0,0,0,0,0,0,-0.04774639,-0.01453151,-0.02883236,-0.002563477,-0.9903564,-0.2226563,0,0,0,0,0,0
3.220026,-0.886366,-0.6478819,0,0,0,0,0,0,0,0,0,0,0,0,0,0,0,0,0,0,0,0.001342773,-0.9699707,-0.2215576,0,0,0,0,0,0
3.225026,-0.8613026,-0.6628458,0,0,0,0,0,0,0,0,0,0,0,0,0,0,0,0,0,0,0,0.008666992,-0.9671631,-0.2353516,0,0,0,0,0,0
3.230026,-0.8382716,-0.7031947,0,0,0,0,0,0,0,0,0,0,0,0,0,0,0,0,-0.05847322,-0.009245765,-0.0224897,-0.004516602,-0.9581299,-0.2359619,0,0,0,0,0,0
3.235027,-0.8308456,-0.7195361,0,0,0,0,0,0,0,0,0,0,0,0,0,0,0,0,0,0,0,-0.005126953,-0.9523926,-0.2474365,0,0,0,0,0,0
3.240027,-0.8147796,-0.7352889,0,0,0,0,0,0,0,0,0,0,0,0,0,0,0,0,0,0,0,-0.001464844,-0.9512939,-0.262207,0,0,0,0,0,0
3.245027,-0.7828245,-0.7669296,0,0,0,0,0,0,0,0,0,0,0,0,0,0,0,0,-0.03923203,-0.001249428,-0.01574279,-0.003173828,-0.9506836,-0.2745361,0,0,0,0,0,0
3.250027,-0.7748705,-0.7748705,0,0,0,0,0,0,0,0,0,0,0,0,0,0,0,0,0,0,0,0.001586914,-0.9591064,-0.27771,0,0,0,0,0,0
3.255027,-0.7669296,-0.7828245,0,0,0,0,0,0,0,0,0,0,0,0,0,0,0,0,0,0,0,0.01159668,-0.9576416,-0.2740479,0,0,0,0,0,0
3.260027,-0.751722,-0.8074051,0,0,0,0,0,0,0,0,0,0,0,0,0,0,0,0,0,0,0,0.01269531,-0.9423828,-0.2716064,0,0,0,0,0,0
3.265027,-0.7352889,-0.8147796,0,0,0,0,0,0,0,0,0,0,0,0,0,0,0,0,0,0,0,0.01062012,-0.9360352,-0.2739258,0,0,0,0,0,0
3.270027,-0.7110435,-0.8302128,0,0,0,0,0,0,0,0,0,0,0,0,0,0,0,0,-0.005497482,0.003248512,-0.004747826,0.008300781,-0.9356689,-0.2849121,0,0,0,0,0,0
3.275028,-0.6953552,-0.8463467,0,0,0,0,0,0,0,0,0,0,0,0,0,0,0,0,0,0,0,0.002197266,-0.9378662,-0.2822266,0,0,0,0,0,0
3.280028,-0.6875248,-0.8544383,0,0,0,0,0,0,0,0,0,0,0,0,0,0,0,0,0,0,0,0.001220703,-0.9428711,-0.2849121,0,0,0,0,0,0
3.285028,-0.6556707,-0.8782014,0,0,0,0,0,0,0,0,0,0,0,0,0,0,0,0,0.01174462,0.0009995422,-0.004997711,-0.0004882813,-0.9621582,-0.27771,0,0,0,0,0,0
3.290028,-0.6400992,-0.8945485,0,0,0,0,0,0,0,0,0,0,0,0,0,0,0,0,0,0,0,-0.002685547,-0.9605713,-0.2762451,0,0,0,0,0,0
3.295028,-0.6000989,-0.9180321,0,0,0,0,0,0,0,0,0,0,0,0,0,0,0,0,0.01599267,-0.0002498855,-0.002998627,0.01098633,-0.9637451,-0.276001,0,0,0,0,0,0
3.300028,-0.5763075,-0.9340156,0,0,0,0,0,0,0,0,0,0,0,0,0,0,0,0,0,0,0,0.01293945,-0.9691162,-0.2751465,0,0,0,0,0,0
3.305028,-0.5602909,-0.9417656,0,0,0,0,0,0,0,0,0,0,0,0,0,0,0,0,0,0,0,0.01513672,-0.9763184,-0.2662354,0,0,0,0,0,0
3.310028,-0.520642,-0.965771,0,0,0,0,0,0,0,0,0,0,0,0,0,0,0,0,0.01199451,-0.005747368,0.0004997711,0.009643555,-0.9927979,-0.2507324,0,0,0,0,0,0
3.315028,-0.4965006,-0.9731412,0,0,0,0,0,0,0,0,0,0,0,0,0,0,0,0,0,0,0,0.0004882813,-0.9967041,-0.2491455,0,0,0,0,0,0
3.320029,-0.4806126,-0.9810852,0,0,0,0,0,0,0,0,0,0,0,0,0,0,0,0,0,0,0,-0.005004883,-0.994751,-0.2467041,0,0,0,0,0,0
3.325029,-0.4249173,-1,0,0,0,0,0,0,0,0,0,0,0,0,0,0,0,0,0.01149474,-0.002498855,0.007746452,-0.002197266,-0.9946289,-0.2568359,0,0,0,0,0,0
3.330029,-0.4009901,-1,0,0,0,0,0,0,0,0,0,0,0,0,0,0,0,0,0,0,0,-0.002685547,-0.9918213,-0.2600098,0,0,0,0,0,0
3.335029,-0.3766855,-1,0,0,0,0,0,0,0,0,0,0,0,0,0,0,0,0,0,0,0,-0.002685547,-0.9891357,-0.2553711,0,0,0,0,0,0
3.340029,-0.3202776,-1,0,0,0,0,0,0,0,0,0,0,0,0,0,0,0,0,0.007611073,-0.005535325,0.01037874,-0.004638672,-0.9897461,-0.2475586,0,0,0,0,0,0
3.345029,-0.2962267,-1,0,0,0,0,0,0,0,0,0,0,0,0,0,0,0,0,0,0,0,-0.007568359,-0.9925537,-0.2487793,0,0,0,0,0,0
3.350029,-0.2642672,-1,0,0,0,0,0,0,0,0,0,0,0,0,0,0,0,0,0,0,0,-0.00769043,-0.987793,-0.2491455,0,0,0,0,0,0
3.355029,-0.2165419,-1,0,0,0,0,0,0,0,0,0,0,0,0,0,0,0,0,0.005749239,-0.004999338,0.01074858,-0.006591797,-0.9831543,-0.2521973,0,0,0,0,0,0
3.360029,-0.1690417,-1,0,0,0,0,0,0,0,0,0,0,0,0,0,0,0,0,0,0,0,-0.002441406,-0.9768066,-0.2540283,0,0,0,0,0,0
3.36503,-0.1217254,-1,0,0,0,0,0,0,0,0,0,0,0,0,0,0,0,0,0.008246223,-0.00449794,0.008496109,0.0002441406,-0.980957,-0.2554932,0,0,0,0,0,0
3.37003,-0.09812176,-1,0,0,0,0,0,0,0,0,0,0,0,0,0,0,0,0,0,0,0,-0.0007324219,-0.9785156,-0.2600098,0,0,0,0,0,0
3.37503,-0.08240198,-1,0,0,0,0,0,0,0,0,0,0,0,0,0,0,0,0,0,0,0,-0.005859375,-0.9775391,-0.2558594,0,0,0,0,0,0
3.38003,-0.04314433,-1,0,0,0,0,0,0,0,0,0,0,0,0,0,0,0,0,0.009245765,-0.003498398,0.007496567,-0.007446289,-0.9741211,-0.2557373,0,0,0,0,0,0
3.38503,-0.02745281,-1,0,0,0,0,0,0,0,0,0,0,0,0,0,0,0,0,0,0,0,-0.008544922,-0.9731445,-0.2580566,0,0,0,0,0,0
3.39003,-0.01960851,-1,0,0,0,0,0,0,0,0,0,0,0,0,0,0,0,0,0,0,0,-0.007080078,-0.9708252,-0.2590332,0,0,0,0,0,0
3.39503,0.01176485,-1,0,0,0,0,0,0,0,0,0,0,0,0,0,0,0,0,0,0,0,-0.009521484,-0.9761963,-0.255249,0,0,0,0,0,0
3.40003,0.01960851,-1,0,0,0,0,0,0,0,0,0,0,0,0,0,0,0,0,0,0,0,-0.01330566,-0.9770508,-0.2565918,0,0,0,0,0,0
3.40503,0.035298,-1,0,0,0,0,0,0,0,0,0,0,0,0,0,0,0,0,0.009745537,-0.002748741,0.003248512,-0.008178711,-0.9797363,-0.2574463,0,0,0,0,0,0
3.410031,0.05099206,-1,0,0,0,0,0,0,0,0,0,0,0,0,0,0,0,0,0,0,0,-0.007324219,-0.979248,-0.2592773,0,0,0,0,0,0
3.415031,0.05884144,-1,0,0,0,0,0,0,0,0,0,0,0,0,0,0,0,0,0,0,0,-0.005371094,-0.9815674,-0.2574463,0,0,0,0,0,0
3.420031,0.07454614,-1,0,0,0,0,0,0,0,0,0,0,0,0,0,0,0,0,0.008764265,-0.0009225542,0.002306385,-0.004394531,-0.9916992,-0.2507324,0,0,0,0,0,0
3.425031,0.07454614,-1,0,0,0,0,0,0,0,0,0,0,0,0,0,0,0,0,0,0,0,-0.005981445,-0.9987793,-0.2470703,0,0,0,0,0,0
3.430031,0.08240198,-1,0,0,0,0,0,0,0,0,0,0,0,0,0,0,0,0,0,0,0,-0.002319336,-1.004761,-0.2456055,0,0,0,0,0,0
3.435031,0.09812176,-1,0,0,0,0,0,0,0,0,0,0,0,0,0,0,0,0,0,0,0,-0.0008544922,-1.001465,-0.2513428,0,0,0,0,0,0
3.440031,0.1059862,-1,0,0,0,0,0,0,0,0,0,0,0,0,0,0,0,0,0,0,0,0,-1.000854,-0.2518311,0,0,0,0,0,0
3.445031,0.1217254,-1,0,0,0,0,0,0,0,0,0,0,0,0,0,0,0,0,0,0,0,0,-0.9980469,-0.2539063,0,0,0,0,0,0
3.450032,0.1374799,-1,0,0,0,0,0,0,0,0,0,0,0,0,0,0,0,0,0,0,0,-0.005126953,-0.9832764,-0.2575684,0,0,0,0,0,0
3.455032,0.1532514,-1,0,0,0,0,0,0,0,0,0,0,0,0,0,0,0,0,0,0,0,-0.006347656,-0.9765625,-0.2568359,0,0,0,0,0,0
3.460032,0.1611441,-1,0,0,0,0,0,0,0,0,0,0,0,0,0,0,0,0,0,0,0,-0.01000977,-0.979126,-0.2556152,0,0,0,0,0,0
3.465032,0.1848525,-1,0,0,0,0,0,0,0,0,0,0,0,0,0,0,0,0,0,0,0,-0.01342773,-0.9824219,-0.2567139,0,0,0,0,0,0
3.470032,0.2006854,-1,0,0,0,0,0,0,0,0,0,0,0,0,0,0,0,0,0,0,0,-0.0135498,-0.9831543,-0.2563477,0,0,0,0,0,0
3.475032,0.2244794,-1,0,0,0,0,0,0,0,0,0,0,0,0,0,0,0,0,0.01074508,0.003248512,0.009745537,-0.005859375,-0.965332,-0.2612305,0,0,0,0,0,0
3.480032,0.2403741,-1,0,0,0,0,0,0,0,0,0,0,0,0,0,0,0,0,0,0,0,-0.006225586,-0.9644775,-0.2642822,0,0,0,0,0,0
3.485032,0.2562958,-1,0,0,0,0,0,0,0,0,0,0,0,0,0,0,0,0,0,0,0,-0.01013184,-0.9718018,-0.2648926,0,0,0,0,0,0
3.490032,0.2882255,-1,0,0,0,0,0,0,0,0,0,0,0,0,0,0,0,0,0.01874142,0.0009995422,0.01624256,-0.008056641,-0.9829102,-0.2641602,0,0,0,0,0,0
3.495033,0.3042357,-1,0,0,0,0,0,0,0,0,0,0,0,0,0,0,0,0,0,0,0,-0.01013184,-0.9829102,-0.2617188,0,0,0,0,0,0
3.500033,0.3283107,-1,0,0,0,0,0,0,0,0,0,0,0,0,0,0,0,0,0,0,0,-0.01037598,-0.9781494,-0.2529297,0,0,0,0,0,0
3.505033,0.3686016,-1,0,0,0,0,0,0,0,0,0,0,0,0,0,0,0,0,0.0232986,0.001614755,0.02168385,-0.006225586,-0.9580078,-0.2423096,0,0,0,0,0,0
3.510033,0.3847782,-1,0,0,0,0,0,0,0,0,0,0,0,0,0,0,0,0,0,0,0,-0.00402832,-0.9610596,-0.2424316,0,0,0,0,0,0
3.515033,0.4091095,-1,0,0,0,0,0,0,0,0,0,0,0,0,0,0,0,0,0,0,0,-0.005615234,-0.9647217,-0.2414551,0,0,0,0,0,0
3.520033,0.4498426,-1,0,0,0,0,0,0,0,0,0,0,0,0,0,0,0,0,0.03048604,0.002498855,0.03448421,-0.01171875,-0.9659424,-0.2456055,0,0,0,0,0,0
3.525033,0.4743927,-1,0,0,0,0,0,0,0,0,0,0,0,0,0,0,0,0,0,0,0,-0.01855469,-0.9604492,-0.2451172,0,0,0,0,0,0
3.530033,0.4990265,-1,0,0,0,0,0,0,0,0,0,0,0,0,0,0,0,0,0,0,0,-0.01672363,-0.960083,-0.2473145,0,0,0,0,0,0
3.535033,0.540269,-1,0,0,0,0,0,0,0,0,0,0,0,0,0,0,0,0,0,0,0,-0.01257324,-0.9699707,-0.2485352,0,0,0,0,0,0
3.540034,0.5563178,-1,0,0,0,0,0,0,0,0,0,0,0,0,0,0,0,0,0,0,0,-0.01538086,-0.9713135,-0.2537842,0,0,0,0,0,0
3.545034,0.6046099,-0.9889976,0,0,0,0,0,0,0,0,0,0,0,0,0,0,0,0,0.03806207,-0.0004613585,0.0311417,-0.02075195,-0.9681396,-0.255127,0,0,0,0,0,0
3.550034,0.6202084,-0.9723267,0,0,0,0,0,0,0,0,0,0,0,0,0,0,0,0,0,0,0,-0.02062988,-0.9711914,-0.2532959,0,0,0,0,0,0
3.555034,0.6363822,-0.9645792,0,0,0,0,0,0,0,0,0,0,0,0,0,0,0,0,0,0,0,-0.02209473,-0.9799805,-0.2478027,0,0,0,0,0,0
3.560034,0.6845161,-0.9327032,0,0,0,0,0,0,0,0,0,0,0,0,0,0,0,0,0.03373455,-0.005997253,0.02648787,-0.01867676,-0.9838867,-0.2202148,0,0,0,0,0,0
3.565034,0.691781,-0.91571,0,0,0,0,0,0,0,0,0,0,0,0,0,0,0,0,0,0,0,-0.02160645,-0.9853516,-0.2197266,0,0,0,0,0,0
3.570034,0.7159706,-0.8999631,0,0,0,0,0,0,0,0,0,0,0,0,0,0,0,0,0,0,0,-0.02807617,-0.9838867,-0.2161865,0,0,0,0,0,0
3.575034,0.7475448,-0.8674718,0,0,0,0,0,0,0,0,0,0,0,0,0,0,0,0,0,0,0,-0.02246094,-0.9842529,-0.2199707,0,0,0,0,0,0
3.580034,0.7633857,-0.8513149,0,0,0,0,0,0,0,0,0,0,0,0,0,0,0,0,0,0,0,-0.02197266,-0.9858398,-0.2243652,0,0,0,0,0,0
3.585035,0.7951917,-0.8191673,0,0,0,0,0,0,0,0,0,0,0,0,0,0,0,0,0.01524302,-0.005247597,0.008496109,-0.02197266,-0.987793,-0.230957,0,0,0,0,0,0
3.590035,0.810544,-0.7945727,0,0,0,0,0,0,0,0,0,0,0,0,0,0,0,0,0,0,0,-0.0222168,-0.9945068,-0.2346191,0,0,0,0,0,0
3.595035,0.8179268,-0.778028,0,0,0,0,0,0,0,0,0,0,0,0,0,0,0,0,0,0,0,-0.02636719,-1.005005,-0.229248,0,0,0,0,0,0
3.600035,0.849466,-0.7377991,0,0,0,0,0,0,0,0,0,0,0,0,0,0,0,0,0.005997742,-0.006247648,0.007247271,-0.02648926,-1.00708,-0.2281494,0,0,0,0,0,0
3.605035,0.8656361,-0.7220283,0,0,0,0,0,0,0,0,0,0,0,0,0,0,0,0,0,0,0,-0.02746582,-1.003906,-0.2263184,0,0,0,0,0,0
3.610035,0.8731322,-0.7056823,0,0,0,0,0,0,0,0,0,0,0,0,0,0,0,0,0,0,0,-0.02746582,-0.9985352,-0.2294922,0,0,0,0,0,0
3.615035,0.8875827,-0.664692,0,0,0,0,0,0,0,0,0,0,0,0,0,0,0,0,0,0,0,-0.03100586,-0.9898682,-0.2369385,0,0,0,0,0,0
3.620035,0.9039459,-0.649089,0,0,0,0,0,0,0,0,0,0,0,0,0,0,0,0,0,0,0,-0.03222656,-0.9885254,-0.2371826,0,0,0,0,0,0
3.625036,0.9197923,-0.6251402,0,0,0,0,0,0,0,0,0,0,0,0,0,0,0,0,0.006996796,-0.005497482,0.01124485,-0.02856445,-0.9921875,-0.2424316,0,0,0,0,0,0
3.630036,0.9274606,-0.6090192,0,0,0,0,0,0,0,0,0,0,0,0,0,0,0,0,0,0,0,-0.02832031,-0.9932861,-0.244751,0,0,0,0,0,0
3.635036,0.9263003,-0.5923551,0,0,0,0,0,0,0,0,0,0,0,0,0,0,0,0,0,0,0,-0.0333252,-0.9962158,-0.243042,0,0,0,0,0,0
3.640036,0.9423288,-0.5685782,0,0,0,0,0,0,0,0,0,0,0,0,0,0,0,0,0.008534378,-0.003459883,0.01360887,-0.02758789,-0.9997559,-0.2357178,0,0,0,0,0,0
3.645036,0.9501057,-0.552572,0,0,0,0,0,0,0,0,0,0,0,0,0,0,0,0,0,0,0,-0.02783203,-0.9931641,-0.2338867,0,0,0,0,0,0
3.650036,0.9579193,-0.5365938,0,0,0,0,0,0,0,0,0,0,0,0,0,0,0,0,0,0,0,-0.02648926,-0.9814453,-0.2348633,0,0,0,0,0,0
3.655036,0.9731412,-0.4965006,0,0,0,0,0,0,0,0,0,0,0,0,0,0,0,0,0,0,0,-0.02416992,-0.9743652,-0.2382813,0,0,0,0,0,0
3.660036,0.9810852,-0.4806126,0,0,0,0,0,0,0,0,0,0,0,0,0,0,0,0,0,0,0,-0.03112793,-0.9748535,-0.2382813,0,0,0,0,0,0
3.665036,0.987129,-0.4321167,0,0,0,0,0,0,0,0,0,0,0,0,0,0,0,0,0.01074508,-0.005497482,0.01124485,-0.03088379,-0.9747314,-0.2369385,0,0,0,0,0,0
3.670037,0.9952164,-0.4163256,0,0,0,0,0,0,0,0,0,0,0,0,0,0,0,0,0,0,0,-0.03186035,-0.980835,-0.2374268,0,0,0,0,0,0
3.675037,1,-0.3924417,0,0,0,0,0,0,0,0,0,0,0,0,0,0,0,0,0,0,0,-0.03137207,-0.9782715,-0.2365723,0,0,0,0,0,0
3.680037,1,-0.3524597,0,0,0,0,0,0,0,0,0,0,0,0,0,0,0,0,0.008304453,-0.005536302,0.007612415,-0.02612305,-0.9825439,-0.2325439,0,0,0,0,0,0
3.685037,1,-0.3283107,0,0,0,0,0,0,0,0,0,0,0,0,0,0,0,0,0,0,0,-0.0255127,-0.9852295,-0.2302246,0,0,0,0,0,0
3.690037,1,-0.2962267,0,0,0,0,0,0,0,0,0,0,0,0,0,0,0,0,0,0,0,-0.02453613,-0.9868164,-0.2332764,0,0,0,0,0,0
3.695037,1,-0.2483314,0,0,0,0,0,0,0,0,0,0,0,0,0,0,0,0,0.007246681,-0.005247597,0.007496567,-0.02734375,-0.9870605,-0.2348633,0,0,0,0,0,0
3.700037,1,-0.2324234,0,0,0,0,0,0,0,0,0,0,0,0,0,0,0,0,0,0,0,-0.02929688,-0.9885254,-0.2401123,0,0,0,0,0,0
3.705037,1,-0.2006854,0,0,0,0,0,0,0,0,0,0,0,0,0,0,0,0,0.00599823,-0.003748894,0.007497788,-0.03710938,-0.9954834,-0.2359619,0,0,0,0,0,0
3.710037,1,-0.1848525,0,0,0,0,0,0,0,0,0,0,0,0,0,0,0,0,0,0,0,-0.04187012,-0.9980469,-0.2376709,0,0,0,0,0,0
3.715038,1,-0.1690417,0,0,0,0,0,0,0,0,0,0,0,0,0,0,0,0,0,0,0,-0.04492188,-0.9978027,-0.2342529,0,0,0,0,0,0
3.720038,1,-0.1374799,0,0,0,0,0,0,0,0,0,0,0,0,0,0,0,0,-0.0002498855,-0.0004997711,0.008995879,-0.03381348,-0.9957275,-0.2294922,0,0,0,0,0,0
3.725038,1,-0.113854,0,0,0,0,0,0,0,0,0,0,0,0,0,0,0,0,0,0,0,-0.03417969,-0.998291,-0.2275391,0,0,0,0,0,0
3.730038,1,-0.1059862,0,0,0,0,0,0,0,0,0,0,0,0,0,0,0,0,0,0,0,-0.03125,-0.9902344,-0.2265625,0,0,0,0,0,0
3.735038,1,-0.07454614,0,0,0,0,0,0,0,0,0,0,0,0,0,0,0,0,0.0009995422,0.0002498855,0.003748283,-0.0267334,-0.9608154,-0.2286377,0,0,0,0,0,0
3.740038,1,-0.06669273,0,0,0,0,0,0,0,0,0,0,0,0,0,0,0,0,0,0,0,-0.0267334,-0.9642334,-0.2318115,0,0,0,0,0,0
3.745038,1,-0.05099206,0,0,0,0,0,0,0,0,0,0,0,0,0,0,0,0,0,0,0,-0.02832031,-0.9788818,-0.2332764,0,0,0,0,0,0
3.750038,1,-0.01960851,0,0,0,0,0,0,0,0,0,0,0,0,0,0,0,0,0.005997253,0.001749199,0.0004997711,-0.02185059,-0.9848633,-0.2253418,0,0,0,0,0,0
3.755038,1,-0.003921574,0,0,0,0,0,0,0,0,0,0,0,0,0,0,0,0,0,0,0,-0.02087402,-0.9820557,-0.2266846,0,0,0,0,0,0
3.760039,1,0.01960851,0,0,0,0,0,0,0,0,0,0,0,0,0,0,0,0,0,0,0,-0.02783203,-0.9835205,-0.2263184,0,0,0,0,0,0
3.765039,1,0.05884144,0,0,0,0,0,0,0,0,0,0,0,0,0,0,0,0,0.005997131,0.001614612,0.005074495,-0.03356934,-0.9908447,-0.2370605,0,0,0,0,0,0
3.770039,1,0.08240198,0,0,0,0,0,0,0,0,0,0,0,0,0,0,0,0,0,0,0,-0.03405762,-0.9837646,-0.239502,0,0,0,0,0,0
3.775039,1,0.1059862,0,0,0,0,0,0,0,0,0,0,0,0,0,0,0,0,0,0,0,-0.03161621,-0.9782715,-0.2387695,0,0,0,0,0,0
3.780039,0.984315,0.1764708,0,0,0,0,0,0,0,0,0,0,0,0,0,0,0,0,0,0,0,-0.02624512,-0.989502,-0.2335205,0,0,0,0,0,0
3.785039,0.9581493,0.2150947,0,0,0,0,0,0,0,0,0,0,0,0,0,0,0,0,0,0,0,-0.02282715,-0.9874268,-0.2299805,0,0,0,0,0,0
3.790039,0.9074132,0.2998748,0,0,0,0,0,0,0,0,0,0,0,0,0,0,0,0,0.01774187,0.001999084,0.008496109,-0.02185059,-0.9807129,-0.230957,0,0,0,0,0,0
3.795039,0.8734676,0.3377408,0,0,0,0,0,0,0,0,0,0,0,0,0,0,0,0,0,0,0,-0.0267334,-0.9848633,-0.22229,0,0,0,0,0,0
3.80004,0.840602,0.3835005,0,0,0,0,0,0,0,0,0,0,0,0,0,0,0,0,0,0,0,-0.0267334,-0.9937744,-0.2139893,0,0,0,0,0,0
3.80504,0.7849777,0.4678931,0,0,0,0,0,0,0,0,0,0,0,0,0,0,0,0,0.01774187,0.004248055,0.009245765,-0.03369141,-1.004883,-0.217041,0,0,0,0,0,0
3.81004,0.7626224,0.5148669,0,0,0,0,0,0,0,0,0,0,0,0,0,0,0,0,0,0,0,-0.03234863,-1,-0.2232666,0,0,0,0,0,0
3.81504,0.7399344,0.5539823,0,0,0,0,0,0,0,0,0,0,0,0,0,0,0,0,0,0,0,-0.03588867,-0.9970703,-0.2229004,0,0,0,0,0,0
3.82004,0.6867973,0.6324744,0,0,0,0,0,0,0,0,0,0,0,0,0,0,0,0,0,0,0,-0.05236816,-1.031128,-0.2053223,0,0,0,0,0,0
3.82504,0.6648714,0.6726477,0,0,0,0,0,0,0,0,0,0,0,0,0,0,0,0,0,0,0,-0.05969238,-1.045898,-0.1804199,0,0,0,0,0,0
3.83004,0.6206602,0.7455729,0,0,0,0,0,0,0,0,0,0,0,0,0,0,0,0,-0.01349382,0.01674233,0.002748741,-0.0612793,-1.055664,-0.149292,0,0,0,0,0,0
3.83504,0.5989967,0.7869172,0,0,0,0,0,0,0,0,0,0,0,0,0,0,0,0,0,0,0,-0.06738281,-1.041626,-0.1450195,0,0,0,0,0,0
3.84004,0.5773241,0.8286761,0,0,0,0,0,0,0,0,0,0,0,0,0,1,0,0,0,0,0,-0.06848145,-1.036987,-0.1437988,0,0,0,0,0,0
3.845041,0.5102376,0.9295025,0,0,0,0,0,0,0,0,0,0,0,0,0,1,0,0,-0.04897757,0.03048604,-0.005247597,-0.05761719,-1.047485,-0.1503906,0,0,0,0,0,0
3.850041,0.4806126,0.9810852,0,0,0,0,0,0,0,0,0,0,0,0,0,1,0,0,0,0,0,-0.05554199,-1.060791,-0.1497803,0,0,0,0,0,0
3.855041,0.4416777,1,0,0,0,0,0,0,0,0,0,0,0,0,0,1,0,0,0,0,0,-0.04577637,-1.013916,-0.1885986,0,0,0,0,0,0
3.860041,0.3847782,1,0,0,0,0,0,0,0,0,0,0,0,0,0,1,0,0,0,0,0,-0.04125977,-0.935791,-0.2910156,0,0,0,0,0,0
3.865041,0.3524597,1,0,0,0,0,0,0,0,0,0,0,0,0,0,1,0,0,0,0,0,-0.0300293,-0.9476318,-0.2971191,0,0,0,0,0,0
3.870041,0.2962267,1,0,0,0,0,0,0,0,0,0,0,0,0,0,1,0,0,-0.02348924,0.01074508,-0.04997711,-0.03564453,-0.949585,-0.2880859,0,0,0,0,0,0
3.875041,0.2562958,1,0,0,0,0,0,0,0,0,0,0,0,0,0,1,0,0,-0.02198993,0.003998169,-0.05647413,-0.02404785,-0.947876,-0.27771,0,0,0,0,0,0
3.880041,0.1217254,1,0,0,0,0,0,0,0,0,0,0,0,0,0,1,0,0,0,0,0,-0.01928711,-0.9539795,-0.2331543,0,0,0,0,0,0
3.885041,0.07454614,1,0,0,0,0,0,0,0,0,0,0,0,0,0,1,0,0,0,0,0,-0.02355957,-0.9331055,-0.2225342,0,0,0,0,0,0
3.890042,-0.035298,1,0,0,0,0,0,0,0,0,0,0,0,0,0,1,0,0,0,0,0,-0.0007324219,-0.9836426,-0.2584229,0,0,0,0,0,0
3.895042,-0.09812176,1,0,0,0,0,0,0,0,0,0,0,0,0,0,1,0,0,0,0,0,0.007324219,-0.9816895,-0.27771,0,0,0,0,0,0
3.900042,-0.2165419,1,0,0,0,0,0,0,0,0,0,0,0,0,0,1,0,0,0.006247139,-0.01599267,-0.03873226,0.015625,-0.9691162,-0.2976074,0,0,0,0,0,0
3.905042,-0.2722459,1,0,0,0,0,0,0,0,0,0,0,0,0,0,1,0,0,0,0,0,0.004150391,-0.9677734,-0.2906494,0,0,0,0,0,0
3.910042,-0.3202776,1,0,0,0,0,0,0,0,0,0,0,0,0,0,1,0,0,0,0,0,-0.00769043,-0.9606934,-0.2783203,0,0,0,0,0,0
3.915042,-0.4172379,1,0,0,0,0,0,0,0,0,0,0,0,0,0,1,0,0,0.0177623,-0.01061124,-0.01868502,-0.01281738,-0.9415283,-0.2583008,0,0,0,0,0,0
3.920042,-0.4580168,1,0,0,0,0,0,0,0,0,0,0,0,0,0,1,0,0,0,0,0,-0.01989746,-0.921875,-0.2485352,0,0,0,0,0,0
3.925042,-0.5072563,1,0,0,0,0,0,0,0,0,0,0,0,0,0,1,0,0,0,0,0,-0.01538086,-0.9129639,-0.2619629,0,0,0,0,0,0
3.930043,-0.5713281,0.9868394,0,0,0,0,0,0,0,0,0,0,0,0,0,1,0,0,0.05497482,-0.009245765,-0.01274416,0.002685547,-0.930542,-0.2817383,0,0,0,0,0,0
3.935043,-0.5957312,0.979558,0,0,0,0,0,0,0,0,0,0,0,0,0,1,0,0,0,0,0,-0.001586914,-0.9586182,-0.2758789,0,0,0,0,0,0
3.940043,-0.6274477,0.9551592,0,0,0,0,0,0,0,0,0,0,0,0,0,1,0,0,0,0,0,-0.0004882813,-0.961792,-0.2662354,0,0,0,0,0,0
3.945043,-0.6833416,0.9151183,0,0,0,0,0,0,0,0,0,0,0,0,0,1,0,0,0,0,0,0.004882813,-0.9541016,-0.2598877,0,0,0,0,0,0
3.950043,-0.7068986,0.8906124,0,0,0,0,0,0,0,0,0,0,0,0,0,1,0,0,0,0,0,0.009155273,-0.9639893,-0.25,0,0,0,0,0,0
3.955043,-0.7402433,0.8842907,0,0,0,0,0,0,0,0,0,0,0,0,0,0,0,0,0,0,0,0.008300781,-0.9753418,-0.2453613,0,0,0,0,0,0
3.960043,-0.779267,0.8352143,0,0,0,0,0,0,0,0,0,0,0,0,0,0,0,0,0,0,0,-0.0006103516,-0.9992676,-0.2235107,0,0,0,0,0,0
3.965043,-0.8031714,0.8111632,0,0,0,0,0,0,0,0,0,0,0,0,0,0,0,0,0,0,0,-0.01025391,-0.9981689,-0.2113037,0,0,0,0,0,0
3.970043,-0.8191673,0.7951917,0,0,0,0,0,0,0,0,0,0,0,0,0,0,0,0,0,0,0,-0.01782227,-1.005249,-0.2016602,0,0,0,0,0,0
3.975044,-0.8513149,0.7633857,0,0,0,0,0,0,0,0,0,0,0,0,0,0,0,0,0,0,0,-0.01831055,-1.00769,-0.1968994,0,0,0,0,0,0
3.980044,-0.8587738,0.7469335,0,0,0,0,0,0,0,0,0,0,0,0,0,0,0,0,0,0,0,-0.02758789,-1.014038,-0.1912842,0,0,0,0,0,0
3.985044,-0.8830822,0.7232483,0,0,0,0,0,0,0,0,0,0,0,0,0,0,0,0,0.04248054,-0.007246681,0.006497024,-0.02160645,-1.046875,-0.2097168,0,0,0,0,0,0
3.990044,-0.8912154,0.7153703,0,0,0,0,0,0,0,0,0,0,0,0,0,0,0,0,0,0,0,-0.01586914,-1.022095,-0.192627,0,0,0,0,0,0
3.995044,-0.8987648,0.6990393,0,0,0,0,0,0,0,0,0,0,0,0,0,0,0,0,0,0,0,-0.01000977,-1.015381,-0.1879883,0,0,0,0,0,0
4.000044,-0.9151183,0.6833416,0,0,0,0,0,0,0,0,0,0,0,0,0,0,0,0,0.01153193,-0.003459578,-0.002306385,-0.02258301,-1.005249,-0.1789551,0,0,0,0,0,0
4.005044,-0.922732,0.6670833,0,0,0,0,0,0,0,0,0,0,0,0,0,0,0,0,0,0,0,-0.02270508,-1.012085,-0.1744385,0,0,0,0,0,0
4.010044,-0.9309547,0.6592598,0,0,0,0,0,0,0,0,0,0,0,0,0,0,0,0,0,0,0,-0.02526855,-1.007813,-0.1868896,0,0,0,0,0,0
4.015044,-0.9386168,0.6430523,0,0,0,0,0,0,0,0,0,0,0,0,0,0,0,0,0.0009995422,0.0009995422,-0.003248512,-0.02453613,-1.005127,-0.2001953,0,0,0,0,0,0
4.020044,-0.9468793,0.6352481,0,0,0,0,0,0,0,0,0,0,0,0,0,0,0,0,0,0,0,-0.01879883,-1.005249,-0.2036133,0,0,0,0,0,0
4.025044,-0.9551592,0.6274477,0,0,0,0,0,0,0,0,0,0,0,0,0,0,0,0,0,0,0,-0.02111816,-1.008545,-0.2097168,0,0,0,0,0,0
4.030045,-0.962338,0.6029587,0,0,0,0,0,0,0,0,0,0,0,0,0,0,0,0,0,0,0,-0.02905273,-1.003296,-0.2120361,0,0,0,0,0,0
4.035045,-0.9612237,0.5863066,0,0,0,0,0,0,0,0,0,0,0,0,0,0,0,0,0,0,0,-0.02697754,-1.002563,-0.2089844,0,0,0,0,0,0
4.040045,-0.9695654,0.5785473,0,0,0,0,0,0,0,0,0,0,0,0,0,0,0,0,0,0,0,-0.02709961,-1.005493,-0.2072754,0,0,0,0,0,0
4.045045,-0.9773847,0.5624949,0,0,0,0,0,0,0,0,0,0,0,0,0,0,0,0,0,0,0,-0.02331543,-1.010132,-0.2114258,0,0,0,0,0,0
4.050045,-0.976846,0.5542106,0,0,0,0,0,0,0,0,0,0,0,0,0,0,0,0,0,0,0,-0.02490234,-1.008423,-0.2081299,0,0,0,0,0,0
4.055045,-0.9931315,0.5304679,0,0,0,0,0,0,0,0,0,0,0,0,0,0,0,0,-0.01349382,0,-0.006497024,-0.02001953,-1.006104,-0.2099609,0,0,0,0,0,0
4.060045,-0.9920977,0.5139784,0,0,0,0,0,0,0,0,0,0,0,0,0,0,0,0,0,0,0,-0.01867676,-1.001831,-0.2092285,0,0,0,0,0,0
4.065045,-1,0.5062566,0,0,0,0,0,0,0,0,0,0,0,0,0,0,0,0,0,0,0,-0.01745605,-1.002686,-0.2108154,0,0,0,0,0,0
4.070045,-1,0.4821076,0,0,0,0,0,0,0,0,0,0,0,0,0,0,0,0,0,0,0,-0.01098633,-0.979248,-0.2158203,0,0,0,0,0,0
4.075046,-1,0.4739094,0,0,0,0,0,0,0,0,0,0,0,0,0,0,0,0,0,0,0,-0.02868652,-0.9849854,-0.2113037,0,0,0,0,0,0
4.080046,-1,0.4498426,0,0,0,0,0,0,0,0,0,0,0,0,0,0,0,0,-0.009995421,-0.0002498855,-0.006247139,-0.01464844,-0.991333,-0.2178955,0,0,0,0,0,0
4.085046,-1,0.433522,0,0,0,0,0,0,0,0,0,0,0,0,0,0,0,0,0,0,0,-0.01184082,-0.9959717,-0.227417,0,0,0,0,0,0
4.090046,-1,0.4172379,0,0,0,0,0,0,0,0,0,0,0,0,0,0,0,0,0,0,0,-0.009399414,-0.9957275,-0.229126,0,0,0,0,0,0
4.095046,-1,0.3847782,0,0,0,0,0,0,0,0,0,0,0,0,0,0,0,0,-0.0007496566,-0.0007496566,-0.003498398,-0.005004883,-0.9876709,-0.2261963,0,0,0,0,0,0
4.100046,-1,0.3686016,0,0,0,0,0,0,0,0,0,0,0,0,0,0,0,0,0,0,0,0.003295898,-0.9796143,-0.2276611,0,0,0,0,0,0
4.105046,-1,0.3524597,0,0,0,0,0,0,0,0,0,0,0,0,0,0,0,0,0,0,0,-0.01660156,-0.973877,-0.2258301,0,0,0,0,0,0
4.110046,-1,0.3122526,0,0,0,0,0,0,0,0,0,0,0,0,0,0,0,0,0.008745994,0.0002498855,-0.002748741,-0.006103516,-0.9831543,-0.2181396,0,0,0,0,0,0
4.115047,-1,0.2962267,0,0,0,0,0,0,0,0,0,0,0,0,0,0,0,0,0,0,0,-0.00378418,-0.987915,-0.2199707,0,0,0,0,0,0
4.120047,-1,0.2882255,0,0,0,0,0,0,0,0,0,0,0,0,0,0,0,0,0,0,0,-0.004882813,-0.9914551,-0.2148438,0,0,0,0,0,0
4.125047,-1,0.2483314,0,0,0,0,0,0,0,0,0,0,0,0,0,0,0,0,0,0,0,-0.004516602,-0.9857178,-0.2126465,0,0,0,0,0,0
4.130047,-1,0.2324234,0,0,0,0,0,0,0,0,0,0,0,0,0,0,0,0,0,0,0,-0.005615234,-0.9788818,-0.2164307,0,0,0,0,0,0
4.135047,-1,0.2165419,0,0,0,0,0,0,0,0,0,0,0,0,0,0,0,0,0,0,0,-0.01245117,-0.9783936,-0.2202148,0,0,0,0,0,0
4.140047,-1,0.1769445,0,0,0,0,0,0,0,0,0,0,0,0,0,0,0,0,0,0,0,-0.01660156,-0.9753418,-0.2181396,0,0,0,0,0,0
4.145047,-1,0.1611441,0,0,0,0,0,0,0,0,0,0,0,0,0,0,0,0,0,0,0,-0.02233887,-0.979126,-0.2169189,0,0,0,0,0,0
4.150047,-1,0.1374799,0,0,0,0,0,0,0,0,0,0,0,0,0,0,0,0,0,0,0,-0.02197266,-0.9786377,-0.2188721,0,0,0,0,0,0
4.155047,-1,0.1059862,0,0,0,0,0,0,0,0,0,0,0,0,0,0,0,0,0,0,0,-0.02954102,-1.010254,-0.229126,0,0,0,0,0,0
4.160048,-1,0.09026043,0,0,0,0,0,0,0,0,0,0,0,0,0,0,0,0,0,0,0,-0.02709961,-1.019043,-0.2319336,0,0,0,0,0,0
4.165048,-1,0.07454614,0,0,0,0,0,0,0,0,0,0,0,0,0,0,0,0,0,0,0,-0.02258301,-1.016479,-0.2283936,0,0,0,0,0,0
4.170048,-1,0.04314433,0,0,0,0,0,0,0,0,0,0,0,0,0,0,0,0,0,0,0,-0.02172852,-1.017822,-0.2247314,0,0,0,0,0,0
4.175048,-1,0.02745281,0,0,0,0,0,0,0,0,0,0,0,0,0,0,0,0,0,0,0,-0.01940918,-1.015625,-0.2166748,0,0,0,0,0,0
4.180048,-1,0.01176485,0,0,0,0,0,0,0,0,0,0,0,0,0,0,0,0,0,0,0,-0.01916504,-1.013184,-0.2093506,0,0,0,0,0,0
4.185048,-1,-0.01176485,0,0,0,0,0,0,0,0,0,0,0,0,0,0,0,0,0,0,0,-0.0189209,-1.010254,-0.1889648,0,0,0,0,0,0
4.190048,-1,-0.01176485,0,0,0,0,0,0,0,0,0,0,0,0,0,0,0,0,0,0,0,-0.0168457,-1.014648,-0.182251,0,0,0,0,0,0
4.195048,-1,-0.02745281,0,0,0,0,0,0,0,0,0,0,0,0,0,0,0,0,0,0,0,-0.01977539,-1.006104,-0.18396,0,0,0,0,0,0
4.200048,-1,-0.035298,0,0,0,0,0,0,0,0,0,0,0,0,0,0,0,0,0,0,0,-0.0189209,-0.9951172,-0.1898193,0,0,0,0,0,0
4.205049,-1,-0.035298,0,0,0,0,0,0,0,0,0,0,0,0,0,0,0,0,0,0,0,-0.02026367,-0.9874268,-0.1953125,0,0,0,0,0,0
4.210049,-1,-0.04314433,0,0,0,0,0,0,0,0,0,0,0,0,0,0,0,0,0,0,0,-0.01208496,-0.9865723,-0.2052002,0,0,0,0,0,0
4.215049,-1,-0.05099206,0,0,0,0,0,0,0,0,0,0,0,0,0,0,0,0,0,0,0,-0.01147461,-0.9925537,-0.2073975,0,0,0,0,0,0
4.220049,-1,-0.05884144,0,0,0,0,0,0,0,0,0,0,0,0,0,0,0,0,0,0,0,-0.01477051,-0.9976807,-0.2075195,0,0,0,0,0,0
4.225049,-1,-0.07454614,0,0,0,0,0,0,0,0,0,0,0,0,0,0,0,0,0,0,0,-0.01794434,-0.9970703,-0.2069092,0,0,0,0,0,0
4.230049,-1,-0.09026043,0,0,0,0,0,0,0,0,0,0,0,0,0,0,0,0,0,0,0,-0.02111816,-0.9973145,-0.2069092,0,0,0,0,0,0
4.235049,-1,-0.113854,0,0,0,0,0,0,0,0,0,0,0,0,0,0,0,0,-0.02523844,0.009995421,0.01049519,-0.02807617,-0.9907227,-0.1879883,0,0,0,0,0,0
4.240049,-1,-0.1217254,0,0,0,0,0,0,0,0,0,0,0,0,0,0,0,0,0,0,0,-0.02929688,-0.9916992,-0.1783447,0,0,0,0,0,0
4.245049,-1,-0.1453634,0,0,0,0,0,0,0,0,0,0,0,0,0,0,0,0,0,0,0,-0.03466797,-0.9841309,-0.1848145,0,0,0,0,0,0
4.25005,-1,-0.1848525,0,0,0,0,0,0,0,0,0,0,0,0,0,0,0,0,-0.03852003,0.008995697,0.003459883,-0.02819824,-0.9753418,-0.2069092,0,0,0,0,0,0
4.25505,-1,-0.2086106,0,0,0,0,0,0,0,0,0,0,0,0,0,0,0,0,0,0,0,-0.02270508,-0.979248,-0.2172852,0,0,0,0,0,0
4.26005,-1,-0.2244794,0,0,0,0,0,0,0,0,0,0,0,0,0,0,0,0,0,0,0,-0.02392578,-0.9832764,-0.2213135,0,0,0,0,0,0
4.26505,-1,-0.2642672,0.003980001,-0.0003061539,0,0,0,0,0,0,0,0,0,0,0,0,0,0,-0.03498682,0.002998871,0.002499059,-0.0201416,-0.9814453,-0.2254639,0,0,0,0,0,0
4.27005,-1,-0.2802319,0.03153272,-0.002102181,0,0,0,0,0,0,0,0,0,0,0,0,0,0,0,0,0,-0.01708984,-0.9793701,-0.2258301,0,0,0,0,0,0
4.27505,-1,-0.3042357,0.06833278,-0.003867893,0,0,0,0,0,0,0,0,0,0,0,0,0,0,0,0,0,-0.01452637,-0.9832764,-0.2231445,0,0,0,0,0,0
4.28005,-1,-0.3524597,0.1607354,-0.01100928,0,0,0,0,0,0,0,0,0,0,0,0,0,0,-0.03298489,-0.001499313,0.008246223,-0.01611328,-0.9842529,-0.217041,0,0,0,0,0,0
4.28505,-1,-0.3686016,0.2159908,-0.01270534,0,0,0,0,0,0,0,0,0,0,0,0,0,0,0,0,0,-0.02087402,-0.9752197,-0.2233887,0,0,0,0,0,0
4.290051,-1,-0.3924417,0.2715073,-0.01959331,0,0,0,0,0,0,0,0,0,0,0,0,0,0,0,0,0,-0.02770996,-0.9750977,-0.2261963,0,0,0,0,0,0
4.295051,-0.987129,-0.4321167,0.3730516,-0.02821398,0,0,0,0,0,0,0,0,0,0,0,0,0,0,0,0,0,-0.02404785,-0.9794922,-0.223877,0,0,0,0,0,0
4.300051,-0.9795809,-0.4560802,0.4191131,-0.02924045,0,0,0,0,0,0,0,0,0,0,0,0,0,0,0,0,0,-0.02819824,-0.9766846,-0.2260742,0,0,0,0,0,0
4.305051,-0.956296,-0.5118763,0.5298661,-0.03809495,0,0,0,0,0,0,0,0,0,0,0,0,0,0,-0.01649245,-0.003998169,0.01674233,-0.02355957,-0.975708,-0.2315674,0,0,0,0,0,0
4.310051,-0.9484507,-0.527799,0.585166,-0.03901106,0,0,0,0,0,0,0,0,0,0,0,0,0,0,0,0,0,-0.02233887,-0.9720459,-0.2325439,0,0,0,0,0,0
4.315051,-0.9412041,-0.5520143,0.6406125,-0.04705063,0,0,0,0,0,0,0,0,0,0,0,0,0,0,0,0,0,-0.02575684,-0.9708252,-0.2320557,0,0,0,0,0,0
4.320051,-0.9091914,-0.5995105,0.7237032,-0.05566948,0,0,0,0,0,0,0,0,0,0,0,0,0,0,-0.007996337,-0.005497482,0.0189913,-0.02282715,-0.9698486,-0.2258301,0,0,0,0,0,0
4.325051,-0.9021508,-0.6239545,0.7699232,-0.06384729,0,0,0,0,0,0,0,0,0,0,0,0,0,0,0,0,0,-0.0213623,-0.9691162,-0.2202148,0,0,0,0,0,0
4.330051,-0.8857571,-0.6394928,0.8070799,-0.07957125,0,0,0,0,0,0,0,0,0,0,0,0,0,0,0,0,0,-0.01611328,-0.9742432,-0.2185059,0,0,0,0,0,0
4.335052,-0.853813,-0.6790792,0.8998518,-0.1119987,0,0,0,0,0,0,0,0,0,0,0,0,0,0,-0.001383709,-0.0050736,0.01752698,-0.01171875,-0.9766846,-0.2321777,0,0,0,0,0,0
4.340052,-0.8376398,-0.6947249,0.9462418,-0.128502,0,0,0,0,0,0,0,0,0,0,0,0,0,0,0,0,0,-0.01098633,-0.9746094,-0.2354736,0,0,0,0,0,0
4.345052,-0.8295782,-0.7025614,0.9832366,-0.1371047,0,0,0,0,0,0,0,0,0,0,0,0,0,0,0,0,0,-0.01123047,-0.9719238,-0.2301025,0,0,0,0,0,0
4.350052,-0.8061307,-0.7346511,1,-0.1611441,0,0,0,0,0,0,0,0,0,0,0,0,0,0,0.009745537,-0.004747826,0.01424348,-0.05249023,-0.9763184,-0.2091064,0,0,0,0,0,0
4.355052,-0.8067693,-0.7431815,1,-0.1690417,0,0,0,0,0,0,0,0,0,0,0,0,0,0,0,0,0,-0.0592041,-0.9926758,-0.1745605,0,0,0,0,0,0
4.360052,-0.7981337,-0.7425422,1,-0.1848525,0,0,0,0,0,0,0,0,0,0,0,0,0,0,0,0,0,-0.03771973,-1.008179,-0.1663818,0,0,0,0,0,0
4.365052,-0.7828245,-0.7669296,1,-0.2086106,0,0,0,0,0,0,0,0,0,0,0,0,0,0,-0.01891403,-0.002998566,-0.002537248,-0.01696777,-1.005493,-0.1883545,0,0,0,0,0,0
4.370052,-0.7748705,-0.7748705,1,-0.2086106,0,0,0,0,0,0,0,0,0,0,0,0,0,0,0,0,0,-0.02001953,-1.001953,-0.2109375,0,0,0,0,0,0
4.375052,-0.7583603,-0.7821831,1,-0.2086106,0,0,0,0,0,0,0,0,0,0,0,0,0,0,0,0,0,-0.0234375,-0.9976807,-0.2303467,0,0,0,0,0,0
4.380053,-0.7346511,-0.8061307,1,-0.2165419,0,0,0,0,0,0,0,0,0,0,0,0,0,0,0,0,0,-0.0201416,-0.9912109,-0.2392578,0,0,0,0,0,0
4.385053,-0.7189022,-0.82217,1,-0.2165419,0,0,0,0,0,0,0,0,0,0,0,0,0,0,0,0,0,-0.01513672,-0.9869385,-0.2418213,0,0,0,0,0,0
4.390053,-0.6953552,-0.8463467,1,-0.2165419,0,0,0,0,0,0,0,0,0,0,0,0,0,0,-0.01649245,-0.007996337,-0.0207405,-0.01123047,-0.9897461,-0.2473145,0,0,0,0,0,0
4.395053,-0.6790792,-0.853813,1,-0.2165419,0,0,0,0,0,0,0,0,0,0,0,0,0,0,-0.01574279,-0.008496109,-0.02223982,-0.01208496,-0.9897461,-0.2419434,0,0,0,0,0,0
4.400053,-0.6472705,-0.8775876,1,-0.2165419,0,0,0,0,0,0,0,0,0,0,0,0,0,0,-0.01524302,-0.009245765,-0.02323936,-0.009277344,-0.9958496,-0.2305908,0,0,0,0,0,0
4.405053,-0.6400992,-0.8945485,1,-0.2165419,0,0,0,0,0,0,0,0,0,0,0,0,0,0,0,0,0,-0.01135254,-0.9943848,-0.2261963,0,0,0,0,0,0
4.410053,-0.6239545,-0.9021508,1,-0.2165419,0,0,0,0,0,0,0,0,0,0,0,0,0,0,0,0,0,-0.0078125,-0.9986572,-0.2336426,0,0,0,0,0,0
4.415053,-0.6084355,-0.9186182,1,-0.2165419,0,0,0,0,0,0,0,0,0,0,0,0,0,0,-0.01245558,-0.008073061,-0.01522349,-0.006591797,-0.9971924,-0.2344971,0,0,0,0,0,0
4.420053,-0.6000989,-0.9180321,1,-0.2165419,0,0,0,0,0,0,0,0,0,0,0,0,0,0,0,0,0,-0.00793457,-0.9945068,-0.2319336,0,0,0,0,0,0
4.425054,-0.5923551,-0.9263003,1,-0.2165419,0,0,0,0,0,0,0,0,0,0,0,0,0,0,0,0,0,-0.008789063,-0.9929199,-0.2353516,0,0,0,0,0,0
4.430054,-0.5763075,-0.9340156,1,-0.2165419,0,0,0,0,0,0,0,0,0,0,0,0,0,0,0,0,0,-0.006225586,-0.9979248,-0.2373047,0,0,0,0,0,0
4.435054,-0.5685782,-0.9423288,1,-0.2165419,0,0,0,0,0,0,0,0,0,0,0,0,0,0,0,0,0,-0.006347656,-0.9954834,-0.2335205,0,0,0,0,0,0
4.440054,-0.552572,-0.9501057,1,-0.2165419,0,0,0,0,0,0,0,0,0,0,0,0,0,0,-0.01149474,-0.009245765,-0.002748741,-0.002807617,-0.9927979,-0.2329102,0,0,0,0,0,0
4.445054,-0.5448537,-0.9584652,1,-0.2165419,0,0,0,0,0,0,0,0,0,0,0,0,0,0,0,0,0,-0.007324219,-0.9921875,-0.2376709,0,0,0,0,0,0
4.450054,-0.5365938,-0.9579193,1,-0.2165419,0,0,0,0,0,0,0,0,0,0,0,0,0,0,0,0,0,-0.01049805,-0.9897461,-0.2364502,0,0,0,0,0,0
4.455054,-0.520642,-0.965771,1,-0.2006854,0,0,0,0,0,0,0,0,0,0,0,0,0,0,0,0,0,-0.01184082,-0.9906006,-0.2415771,0,0,0,0,0,0
4.460054,-0.5129389,-0.9741862,1,-0.1848525,0,0,0,0,0,0,0,0,0,0,0,0,0,0,0,0,0,-0.02038574,-0.9906006,-0.2403564,0,0,0,0,0,0
4.465055,-0.5129389,-0.9741862,1,-0.1690417,0,0,0,0,0,0,0,0,0,0,0,0,0,0,0,0,0,-0.02868652,-0.9901123,-0.2373047,0,0,0,0,0,0
4.470055,-0.4970172,-0.9821059,1,-0.1374799,0,0,0,0,0,0,0,0,0,0,0,0,0,0,0,0,0,-0.03857422,-0.9873047,-0.2335205,0,0,0,0,0,0
4.475055,-0.4888099,-0.9815939,1,-0.1217254,0,0,0,0,0,0,0,0,0,0,0,0,0,0,0,0,0,-0.04919434,-0.9812012,-0.2332764,0,0,0,0,0,0
4.480055,-0.4729256,-0.9895671,0.9822818,-0.09000989,0,0,0,0,0,0,0,0,0,0,0,0,0,0,-0.003248512,0.0007496566,-0.005747368,-0.04382324,-0.9960938,-0.2316895,0,0,0,0,0,0
4.485055,-0.4652353,-0.9980689,0.9450669,-0.0661158,0,0,0,0,0,0,0,0,0,0,0,0,0,0,0,0,0,-0.03747559,-1.000488,-0.2340088,0,0,0,0,0,0
4.490055,-0.4575411,-1,0.8987746,-0.05014622,0,0,0,0,0,0,0,0,0,0,0,0,0,0,0,0,0,-0.03918457,-1.000122,-0.2418213,0,0,0,0,0,0
4.495055,-0.433522,-1,0.7785982,-0.01880672,0,0,0,0,0,0,0,0,0,0,0,0,0,0,-0.008995879,-0.0007496566,-0.009495651,-0.03295898,-1.003784,-0.2374268,0,0,0,0,0,0
4.500055,-0.4172379,-1,0.7231857,-0.003708645,0,0,0,0,0,0,0,0,0,0,0,0,0,0,0,0,0,-0.02819824,-1.006104,-0.2352295,0,0,0,0,0,0
4.505055,-0.4091095,-1,0.6678438,0.01094826,0,0,0,0,0,0,0,0,0,0,0,0,0,0,0,0,0,-0.02062988,-1.008667,-0.2363281,0,0,0,0,0,0
4.510056,-0.3847782,-1,0.5390818,0.03825741,0,0,0,0,0,0,0,0,0,0,0,0,0,0,-0.01874142,-0.002748741,-0.01024531,-0.02160645,-0.9971924,-0.2349854,0,0,0,0,0,0
4.515056,-0.3766855,-1,0.4840004,0.04400004,0,0,0,0,0,0,0,0,0,0,0,0,0,0,0,0,0,-0.02307129,-0.9929199,-0.2362061,0,0,0,0,0,0
4.520056,-0.3686016,-1,0.4195745,0.0422827,0,0,0,0,0,0,0,0,0,0,0,0,0,0,0,0,0,-0.02087402,-0.9929199,-0.2348633,0,0,0,0,0,0
4.525056,-0.336352,-1,0.2828224,0.04856547,0,0,0,0,0,0,0,0,0,0,0,0,0,0,-0.01749056,-0.001749057,-0.01049434,-0.02050781,-0.989624,-0.2358398,0,0,0,0,0,0
4.530056,-0.3202776,-1,0.2100481,0.04302189,0,0,0,0,0,0,0,0,0,0,0,0,0,0,0,0,0,-0.01904297,-0.9874268,-0.2340088,0,0,0,0,0,0
4.535056,-0.2962267,-1,0.1469924,0.03621552,0,0,0,0,0,0,0,0,0,0,0,0,0,0,0,0,0,-0.01525879,-0.9831543,-0.2374268,0,0,0,0,0,0
4.540056,-0.2642672,-1,0.03427453,0.01355039,0,0,0,0,0,0,0,0,0,0,0,0,0,0,0,0,0,-0.01318359,-0.9688721,-0.2431641,0,0,0,0,0,0
4.545056,-0.2403741,-1,0,0,0,0,0,0,0,0,0,0,0,0,0,0,0,0,0,0,0,-0.01489258,-0.9702148,-0.2402344,0,0,0,0,0,0
4.550056,-0.2244794,-1,0,0,0,0,0,0,0,0,0,0,0,0,0,0,0,0,0,0,0,-0.01098633,-0.9702148,-0.2387695,0,0,0,0,0,0
4.555057,-0.1769445,-1,0,0,0,0,0,0,0,0,0,0,0,0,0,0,0,0,0,0,0,0.005004883,-0.9746094,-0.244873,0,0,0,0,0,0
4.560057,-0.1532514,-1,0,0,0,0,0,0,0,0,0,0,0,0,0,0,0,0,0,0,0,0.0001220703,-0.9775391,-0.2474365,0,0,0,0,0,0
4.565057,-0.1059862,-1,0,0,0,0,0,0,0,0,0,0,0,0,0,0,0,0,0.007746452,-0.001499313,0.01174462,-0.01721191,-0.9888916,-0.2390137,0,0,0,0,0,0
4.570057,-0.09026043,-1,0,0,0,0,0,0,0,0,0,0,0,0,0,0,0,0,0,0,0,-0.02282715,-0.9835205,-0.2315674,0,0,0,0,0,0
4.575057,-0.05884144,-1,0,0,0,0,0,0,0,0,0,0,0,0,0,0,0,0,0,0,0,-0.02575684,-0.9772949,-0.22229,0,0,0,0,0,0
4.580057,-0.01960851,-1,0,0,0,0,0,0,0,0,0,0,0,0,0,0,0,0,0.006459019,0.0004613585,0.01707026,-0.01513672,-0.9694824,-0.2241211,0,0,0,0,0,0
4.585057,0.003921574,-1,0,0,0,0,0,0,0,0,0,0,0,0,0,0,0,0,0,0,0,-0.01672363,-0.9708252,-0.2230225,0,0,0,0,0,0
4.590057,0.02745281,-1,0,0,0,0,0,0,0,0,0,0,0,0,0,0,0,0,0,0,0,-0.01977539,-0.9689941,-0.2220459,0,0,0,0,0,0
4.595057,0.05884144,-1,0,0,0,0,0,0,0,0,0,0,0,0,0,0,0,0,0,0,0,-0.02978516,-0.9621582,-0.2178955,0,0,0,0,0,0
4.600058,0.07454614,-1,0,0,0,0,0,0,0,0,0,0,0,0,0,0,0,0,0,0,0,-0.03479004,-0.9649658,-0.21521,0,0,0,0,0,0
4.605058,0.09026043,-1,0,0,0,0,0,0,0,0,0,0,0,0,0,0,0,0,0,0,0,-0.0345459,-0.9671631,-0.211792,0,0,0,0,0,0
4.610058,0.1059862,-1,0,0,0,0,0,0,0,0,0,0,0,0,0,0,0,0,0,0,0,-0.02893066,-0.9586182,-0.2148438,0,0,0,0,0,0
4.615058,0.113854,-1,0,0,0,0,0,0,0,0,0,0,0,0,0,0,0,0,0,0,0,-0.02709961,-0.9547119,-0.2163086,0,0,0,0,0,0
4.620058,0.1296006,-1,0,0,0,0,0,0,0,0,0,0,0,0,0,0,0,0,-0.002998627,-0.0009995422,-0.003248512,-0.01757813,-0.9625244,-0.2297363,0,0,0,0,0,0
4.625058,0.1374799,-1,0,0,0,0,0,0,0,0,0,0,0,0,0,0,0,0,0,0,0,-0.01733398,-0.9644775,-0.230957,0,0,0,0,0,0
4.630058,0.1453634,-1,0,0,0,0,0,0,0,0,0,0,0,0,0,0,0,0,0,0,0,-0.01708984,-0.9667969,-0.2380371,0,0,0,0,0,0
4.635058,0.1611441,-1,0,0,0,0,0,0,0,0,0,0,0,0,0,0,0,0,0,0,0,-0.01550293,-0.9665527,-0.2354736,0,0,0,0,0,0
4.640059,0.1690417,-1,0,0,0,0,0,0,0,0,0,0,0,0,0,0,0,0,0,0,0,-0.01342773,-0.965332,-0.2401123,0,0,0,0,0,0
4.645059,0.1848525,-1,0,0,0,0,0,0,0,0,0,0,0,0,0,0,0,0,0,0,0,-0.008666992,-0.9602051,-0.2388916,0,0,0,0,0,0
4.650059,0.2006854,-1,0,0,0,0,0,0,0,0,0,0,0,0,0,0,0,0,0,0,0,-0.006103516,-0.9790039,-0.241333,0,0,0,0,0,0
4.655059,0.2165419,-1,0,0,0,0,0,0,0,0,0,0,0,0,0,0,0,0,0,0,0,-0.01574707,-0.9819336,-0.2397461,0,0,0,0,0,0
4.660059,0.2483314,-1,0,0,0,0,0,0,0,0,0,0,0,0,0,0,0,0,0.005247597,-0.005497482,-0.003998169,-0.02661133,-0.9857178,-0.2370605,0,0,0,0,0,0
4.665059,0.2562958,-1,0,0,0,0,0,0,0,0,0,0,0,0,0,0,0,0,0,0,0,-0.02978516,-0.9915771,-0.2371826,0,0,0,0,0,0
4.670059,0.2722459,-1,0,0,0,0,0,0,0,0,0,0,0,0,0,0,0,0,0,0,0,-0.02685547,-0.994751,-0.2324219,0,0,0,0,0,0
4.675059,0.3042357,-1,0,0,0,0,0,0,0,0,0,0,0,0,0,0,0,0,0.003229225,-0.00415186,0.002998566,-0.01916504,-0.9956055,-0.2321777,0,0,0,0,0,0
4.680059,0.3202776,-1,0,0,0,0,0,0,0,0,0,0,0,0,0,0,0,0,0,0,0,-0.01831055,-0.9974365,-0.2330322,0,0,0,0,0,0
4.68506,0.3444016,-1,0,0,0,0,0,0,0,0,0,0,0,0,0,0,0,0,0,0,0,-0.01452637,-0.9975586,-0.232666,0,0,0,0,0,0
4.69006,0.4009901,-1,0,0,0,0,0,0,0,0,0,0,0,0,0,0,0,0,0,0,0,-0.01025391,-1.000854,-0.2373047,0,0,0,0,0,0
4.69506,0.4253754,-1,0,0,0,0,0,0,0,0,0,0,0,0,0,0,0,0,0,0,0,-0.009887695,-0.9963379,-0.2365723,0,0,0,0,0,0
4.70006,0.4580168,-1,0,0,0,0,0,0,0,0,0,0,0,0,0,0,0,0,0,0,0,-0.005249023,-0.9866943,-0.237915,0,0,0,0,0,0
4.70506,0.5320019,-1,0,0,0,0,0,0,0,0,0,0,0,0,0,0,0,0,0,0,0,-0.005371094,-0.9764404,-0.2368164,0,0,0,0,0,0
4.71006,0.5806994,-1,0,0,0,0,0,0,0,0,0,0,0,0,0,0,0,0,0,0,0,-0.003662109,-0.9726563,-0.2390137,0,0,0,0,0,0
4.71506,0.6207611,-0.981203,0,0,0,0,0,0,0,0,0,0,0,0,0,0,0,0,0,0,0,-0.008300781,-0.9645996,-0.2460938,0,0,0,0,0,0
4.72006,0.7080969,-0.9081243,0,0,0,0,0,0,0,0,0,0,0,0,0,0,0,0,0,0,0,-0.002319336,-0.9672852,-0.2423096,0,0,0,0,0,0
4.72506,0.7554604,-0.8593862,0,0,0,0,0,0,0,0,0,0,0,0,0,0,0,0,0,0,0,-0.00793457,-0.9644775,-0.2451172,0,0,0,0,0,0
4.730061,0.8339776,-0.7621517,0,0,0,0,0,0,0,0,0,0,0,0,0,0,0,0,0.02523844,0.005497482,0.03523386,-0.01306152,-0.9678955,-0.2399902,0,0,0,0,0,0
4.735061,0.8725189,-0.6972183,0,0,0,0,0,0,0,0,0,0,0,0,0,0,0,0,0,0,0,-0.01538086,-0.9715576,-0.2363281,0,0,0,0,0,0
4.740061,0.9115608,-0.6329178,0,0,0,0,0,0,0,0,0,0,0,0,0,0,0,0,0,0,0,-0.01538086,-0.973999,-0.2355957,0,0,0,0,0,0
4.745061,0.9652384,-0.5124105,0,0,0,0,0,0,0,0,0,0,0,0,0,0,0,0,0.02273958,0.007246681,0.03698306,-0.02270508,-0.9727783,-0.2354736,0,0,0,0,0,0
4.750061,0.9880918,-0.4484112,0,0,0,0,0,0,0,0,0,0,0,0,0,0,0,0,0,0,0,-0.02258301,-0.9730225,-0.2312012,0,0,0,0,0,0
4.755061,1,-0.3924417,0,0,0,0,0,0,0,0,0,0,0,0,0,0,0,0,0,0,0,-0.02124023,-0.973999,-0.232666,0,0,0,0,0,0
4.760061,1,-0.2802319,0,0,0,0,0,0,0,0,0,0,0,0,0,0,0,0,0.01983666,0.005997131,0.02675643,-0.02453613,-0.9758301,-0.2290039,0,0,0,0,0,0
4.765061,1,-0.2403741,-0.001550108,0.000460843,0,0,0,0,0,0,0,0,0,0,0,0,0,0,0,0,0,-0.02355957,-0.9785156,-0.2277832,0,0,0,0,0,0
4.770061,1,-0.1927661,-0.01008673,0.002844975,0,0,0,0,0,0,0,0,0,0,0,0,0,0,0,0,0,-0.02331543,-0.9855957,-0.2229004,0,0,0,0,0,0
4.775062,1,-0.113854,-0.02742006,0.007014433,0,0,0,0,0,0,0,0,0,0,0,0,0,0,0,0,0,-0.0291748,-0.9968262,-0.2194824,0,0,0,0,0,0
4.780062,1,-0.07454614,-0.04501235,0.01053481,0,0,0,0,0,0,0,0,0,0,0,0,0,0,0,0,0,-0.02490234,-1.010132,-0.2104492,0,0,0,0,0,0
4.785062,1,-0.02745281,-0.05249975,0.009642811,0,0,0,0,0,0,0,0,0,0,0,0,0,0,0,0,0,-0.02331543,-1.014771,-0.2064209,0,0,0,0,0,0
4.790062,1,0.05099206,-0.08866467,0.01399968,0,0,0,0,0,0,0,0,0,0,0,0,0,0,0,0,0,-0.0246582,-1.027954,-0.2150879,0,0,0,0,0,0
4.795062,1,0.09026043,-0.09775042,0.01491108,0,0,0,0,0,0,0,0,0,0,0,0,0,0,0,0,0,-0.0222168,-1.0271,-0.2165527,0,0,0,0,0,0
4.800062,1,0.1611441,-0.1159605,0.01656578,0,0,0,0,0,0,0,0,0,0,0,0,0,0,0.002998566,0.001383953,0.01107163,-0.03149414,-1.026489,-0.2232666,0,0,0,0,0,0
4.805062,1,0.2006854,-0.1250818,0.01731901,0,0,0,0,0,0,0,0,0,0,0,0,0,0,0,0,0,-0.03161621,-1.015625,-0.2266846,0,0,0,0,0,0
4.810062,1,0.2324234,-0.1342122,0.01802851,0,0,0,0,0,0,0,0,0,0,0,0,0,0,0,0,0,-0.03149414,-1.01123,-0.2270508,0,0,0,0,0,0
4.815063,1,0.3202776,-0.1433508,0.01869793,0,0,0,0,0,0,0,0,0,0,0,0,0,0,0.003998494,0.002249153,0.01299511,-0.03466797,-1.005127,-0.2253418,0,0,0,0,0,0
4.820063,1,0.3686016,-0.1524967,0.01933056,0,0,0,0,0,0,0,0,0,0,0,0,0,0,0,0,0,-0.0300293,-1.002075,-0.2216797,0,0,0,0,0,0
4.825063,1,0.4172379,-0.1524967,0.01933056,0,0,0,0,0,0,0,0,0,0,0,0,0,0,0,0,0,-0.02844238,-0.99646,-0.2188721,0,0,0,0,0,0
4.830063,0.9926133,0.5222183,-0.161649,0.01992933,0,0,0,0,0,0,0,0,0,0,0,0,0,0,0.007246681,0.0002498855,0.01399359,-0.04003906,-0.9776611,-0.2298584,0,0,0,0,0,0
