Timestamp, Left Stick X, Left Stick Y, Right Stick X, Right Stick Y, D-Pad Up, D-Pad Right,D-Pad Down, D-Pad Left, Button North, Button East, Button South, Button West, L1, R1, L2, R2, L3, R3,Gyroscope X, Gyroscope Y, Gyroscope Z, Accelerometer X, Accelerometer Y, Accelerometer Z,Touch 1, Touch 2, Touch 1 Pos X, Touch 1 Pos Y, Touch 2 Pos X, Touch 2 Pos Y
0,-0.5884867,0.9968243,0,0,0,0,0,0,0,0,0,0,0,0,0,0,0,0,-0.08021326,0.02823707,-0.01999084,0.08325195,-0.9718018,-0.3825684,0,0,0,0,0,0
0.005,-0.6525872,0.956861,0,0,0,0,0,0,0,0,0,0,0,0,0,0,0,0,0,0,0,0.08520508,-0.9527588,-0.3875732,0,0,0,0,0,0
0.01,-0.7719339,0.851927,0,0,0,0,0,0,0,0,0,0,0,0,0,0,0,0,-0.1339387,0.02623798,-0.007996337,0.08105469,-0.8834229,-0.3994141,0,0,0,0,0,0
0.015,-0.8271842,0.7872236,0,0,0,0,0,0,0,0,0,0,0,0,0,0,0,0,0,0,0,0.08691406,-0.8830566,-0.4151611,0,0,0,0,0,0
0.02,-0.8830822,0.7232483,0,0,0,0,0,0,0,0,0,0,0,0,0,0,0,0,0,0,0,0.08557129,-0.8679199,-0.4224854,0,0,0,0,0,0
0.025,-0.9690174,0.5702448,0,0,0,0,0,0,0,0,0,0,0,0,0,0,0,0,-0.1322002,0.01474445,0.01324501,0.09875488,-0.8409424,-0.4230957,0,0,0,0,0,0
0.03,-1,0.4898192,0,0,0,0,0,0,0,0,0,0,0,0,0,1,0,0,0,0,0,0.1082764,-0.8485107,-0.4355469,0,0,0,0,0,0
0.035,-1,0.4172379,0,0,0,0,0,0,0,0,0,0,0,0,0,1,0,0,0,0,0,0.1044922,-0.8582764,-0.4348145,0,0,0,0,0,0
0.04,-1,0.2642672,0,0,0,0,0,0,0,0,0,0,0,0,0,1,0,0,0,0,0,0.07409668,-0.9072266,-0.4091797,0,0,0,0,0,0
0.04499999,-1,0.1927661,0,0,0,0,0,0,0,0,0,0,0,0,0,1,0,0,0,0,0,0.06896973,-0.9394531,-0.4182129,0,0,0,0,0,0
0.04999999,-1,0.06669273,0,0,0,0,0,0,0,0,0,0,0,0,0,1,0,0,-0.1689226,-0.02149016,0.005747368,-0.02246094,-0.878418,-0.1633301,0,0,0,0,0,0
0.05499999,-1,0,0,0,0,0,0,0,0,0,0,0,0,0,0,1,0,0,0,0,0,-0.09191895,-0.8642578,-0.3238525,0,0,0,0,0,0
0.05999999,-1,-0.05099206,0,0,0,0,0,0,0,0,0,0,0,0,0,1,0,0,0,0,0,-0.06848145,-0.9013672,-0.3640137,0,0,0,0,0,0
0.06499999,-1,-0.113854,0.05136992,0.00733856,0,0,0,0,0,0,0,0,0,0,0,1,0,0,0,0,0,-0.02526855,-0.90979,-0.4382324,0,0,0,0,0,0
0.06999999,-1,-0.1296006,0.09872177,0.01840575,0,0,0,0,0,0,0,0,0,0,0,1,0,0,0,0,0,0.03625488,-0.880249,-0.5739746,0,0,0,0,0,0
0.075,-1,-0.1611441,0.1305021,0.03814678,0,0,0,0,0,0,0,0,0,0,0,1,0,0,0,0,0,0.07373047,-0.8295898,-0.6439209,0,0,0,0,0,0
0.08,-1,-0.2165419,0.2088897,0.07994545,0,0,0,0,0,0,0,0,0,0,0,1,0,0,0,0,0,0.09399414,-0.7476807,-0.7121582,0,0,0,0,0,0
0.085,-1,-0.2483314,0.2389896,0.1016392,0,0,0,0,0,0,0,0,0,0,0,1,0,0,0,0,0,0.1334229,-0.762085,-0.7700195,0,0,0,0,0,0
0.09,-1,-0.3122526,0.3059791,0.1423863,0,0,0,0,0,0,0,0,0,0,0,1,0,0,0,0,0,0.05163574,-0.7689209,-0.6149902,0,0,0,0,0,0
0.09500001,-1,-0.3605264,0.3419285,0.153711,0,0,0,0,0,0,0,0,0,0,0,1,0,0,0,0,0,0.02416992,-0.8031006,-0.550293,0,0,0,0,0,0
0.1,-0.9876082,-0.4402591,0.413307,0.1686293,0,0,0,0,0,0,0,0,0,0,0,1,0,0,-0.01199451,-0.100454,0.04422975,0.002441406,-0.8233643,-0.4871826,0,0,0,0,0,0
0.105,-0.9636579,-0.4877774,0.4488384,0.1721109,0,0,0,0,0,0,0,0,0,0,0,1,0,0,0,0,0,0.03173828,-0.8293457,-0.487793,0,0,0,0,0,0
0.11,-0.9479036,-0.5195622,0.4942752,0.1831929,0,0,0,0,0,0,0,0,0,0,0,1,0,0,0,0,0,0.05175781,-0.8244629,-0.5203857,0,0,0,0,0,0
0.115,-0.9009549,-0.6072515,0.5661494,0.1887164,0,0,0,0,0,0,0,0,0,0,0,1,0,0,-0.0172421,-0.06896842,0.01799176,0.01318359,-0.7947998,-0.482666,0,0,0,0,0,0
0.12,-0.8694362,-0.6550546,0.6113158,0.1917144,0,0,0,0,0,0,0,0,0,0,0,1,0,0,0,0,0,0.009155273,-0.7995605,-0.4632568,0,0,0,0,0,0
0.125,-0.8295782,-0.7025614,0.6475546,0.1939005,0,0,0,0,0,0,0,0,0,0,0,1,0,0,0,0,0,0.02209473,-0.8200684,-0.4710693,0,0,0,0,0,0
0.13,-0.718264,-0.8135034,0.7111543,0.197336,0,0,0,0,0,0,0,0,0,0,0,1,0,0,0,0,0,0.03869629,-0.8294678,-0.4449463,0,0,0,0,0,0
0.135,-0.6544335,-0.8606791,0.7566975,0.1995272,0,0,0,0,0,0,0,0,0,0,0,1,0,0,0,0,0,0.04052734,-0.8258057,-0.4226074,0,0,0,0,0,0
0.14,-0.5118763,-0.956296,0.8205849,0.2022837,0,0,0,0,0,0,0,0,0,0,0,1,0,0,0.006919767,-0.008765038,-0.01199426,0.05090332,-0.8348389,-0.473999,0,0,0,0,0,0
0.145,-0.4244535,-0.9956806,0.8571469,0.2037165,0,0,0,0,0,0,0,0,0,0,0,1,0,0,0,0,0,0.06567383,-0.855835,-0.4923096,0,0,0,0,0,0
0.15,-0.3283107,-1,0.8842661,0.1969326,0,0,0,0,0,0,0,0,0,0,0,1,0,0,0,0,0,0.06591797,-0.8741455,-0.479126,0,0,0,0,0,0
0.155,-0.1453634,-1,0.9659488,0.1759826,0,0,0,0,0,0,0,0,0,0,0,1,0,0,0,0,0,0.0723877,-0.8896484,-0.5072021,0,0,0,0,0,0
0.16,-0.05099206,-1,1,0.1532514,0,0,0,0,0,0,0,0,0,0,0,1,0,0,0,0,0,0.07910156,-0.8686523,-0.5257568,0,0,0,0,0,0
0.165,0.04314433,-1,1,0.1296006,0,0,0,0,0,0,0,0,0,0,0,1,0,0,0,0,0,0.06555176,-0.8343506,-0.5350342,0,0,0,0,0,0
0.17,0.2244794,-1,1,0.04314433,0,0,0,0,0,0,0,0,0,0,0,1,0,0,0,0,0,0.08044434,-0.7607422,-0.5749512,0,0,0,0,0,0
0.175,0.3202776,-1,1,-0.01176485,0,0,0,0,0,0,0,0,0,0,0,1,0,0,0,0,0,0.1108398,-0.7545166,-0.5854492,0,0,0,0,0,0
0.18,0.4253754,-1,1,-0.06669273,0,0,0,0,0,0,0,0,0,0,0,1,0,0,0,0,0,0.1044922,-0.7629395,-0.5697021,0,0,0,0,0,0
0.185,0.6447625,-0.9651414,1,-0.1848525,0,0,0,0,0,0,0,0,0,0,0,1,0,0,0,0,0,0.03833008,-0.7958984,-0.4473877,0,0,0,0,0,0
0.19,0.7481521,-0.8761782,1,-0.2403741,0,0,0,0,0,0,0,0,0,0,0,1,0,0,0,0,0,0.02478027,-0.8297119,-0.4577637,0,0,0,0,0,0
0.1949999,0.9039459,-0.649089,1,-0.3283107,0,0,0,0,0,0,0,0,0,0,0,1,0,0,0.1694224,0.0622215,0.05947276,0.05383301,-0.8984375,-0.4615479,0,0,0,0,0,0
0.1999999,0.9663064,-0.5288838,1,-0.3686016,0,0,0,0,0,0,0,0,0,0,0,1,0,0,0,0,0,0.06494141,-0.9289551,-0.4796143,0,0,0,0,0,0
0.2049999,1,-0.4167845,1,-0.4091095,0,0,0,0,0,0,0,0,0,0,0,1,0,0,0,0,0,0.0526123,-0.9359131,-0.4781494,0,0,0,0,0,0
0.2099999,1,-0.2324234,1,-0.4575411,0,0,0,0,0,0,0,0,0,0,0,1,0,0,0,0,0,-0.02868652,-0.9472656,-0.4759521,0,0,0,0,0,0
0.2149999,1,-0.1848525,0.9985589,-0.4734204,0,0,0,0,0,0,0,0,0,0,0,0,0,0,0,0,0,-0.02600098,-0.9674072,-0.5198975,0,0,0,0,0,0
0.2199999,1,-0.1059862,0.9915852,-0.5057483,0,0,0,0,0,0,0,0,0,0,0,0,0,0,0.1292014,0.03898532,0.05847798,0.02807617,-1.00415,-0.5192871,0,0,0,0,0,0
0.2249999,1,-0.06669273,0.9831394,-0.5134615,0,0,0,0,0,0,0,0,0,0,0,0,0,0,0,0,0,0.01049805,-0.9887695,-0.4910889,0,0,0,0,0,0
0.2299999,1,-0.035298,0.9836607,-0.5216986,0,0,0,0,0,0,0,0,0,0,0,0,0,0,0,0,0,0.02819824,-1.065063,-0.5516357,0,0,0,0,0,0
0.2349999,1,0.02745281,0.9841844,-0.5299455,0,0,0,0,0,0,0,0,0,0,0,0,0,0,0.06821876,0.02548833,0.04547917,-0.02270508,-0.9818115,-0.4084473,0,0,0,0,0,0
0.2399999,1,0.05884144,0.9841844,-0.5299455,0,0,0,0,0,0,0,0,0,0,0,0,0,0,0,0,0,0.003051758,-0.9868164,-0.4372559,0,0,0,0,0,0
0.2449999,1,0.08240198,0.9757748,-0.5376719,0,0,0,0,0,0,0,0,0,0,0,0,0,0,0,0,0,0.02600098,-1.005371,-0.4581299,0,0,0,0,0,0
0.2499999,1,0.1296006,0.9757748,-0.5376719,0,0,0,0,0,0,0,0,0,0,0,0,0,0,0.03823249,0.02573821,0.02049061,0.05358887,-1.021851,-0.505249,0,0,0,0,0,0
0.2549999,1,0.1611441,0.9757748,-0.5376719,0,0,0,0,0,0,0,0,0,0,0,0,0,0,0,0,0,0.04711914,-1.008179,-0.5155029,0,0,0,0,0,0
0.2599999,1,0.1848525,0.9757748,-0.5376719,0,0,0,0,0,0,0,0,0,0,0,0,0,0,0,0,0,0.02514648,-0.9970703,-0.4903564,0,0,0,0,0,0
0.2649999,1,0.2244794,0.9752428,-0.5294175,0,0,0,0,0,0,0,0,0,0,0,0,0,0,0,0,0,0.01940918,-1.023071,-0.4318848,0,0,0,0,0,0
0.2699999,1,0.2562958,0.9752428,-0.5294175,0,0,0,0,0,0,0,0,0,0,0,0,0,0,0,0,0,0.0390625,-1.048096,-0.4088135,0,0,0,0,0,0
0.2749999,1,0.3202776,0.9747131,-0.5211732,0,0,0,0,0,0,0,0,0,0,0,0,0,0,0.03021632,-0.005766472,0.002998566,0.01257324,-1.108398,-0.2913818,0,0,0,0,0,0
0.2799999,1,0.3686016,0.9736622,-0.5047147,0,0,0,0,0,0,0,0,0,0,0,0,0,0,0,0,0,-0.01281738,-1.094238,-0.2952881,0,0,0,0,0,0
0.2849999,1,0.4253754,0.9721088,-0.4801027,0,0,0,0,0,0,0,0,0,0,0,0,0,0,0,0,0,-0.03979492,-1.087769,-0.3209229,0,0,0,0,0,0
0.2899999,0.9941757,0.5469962,0.9938535,-0.391998,0,0,0,0,0,0,0,0,0,0,0,0,0,0,0,0,0,-0.07312012,-1.087036,-0.3380127,0,0,0,0,0,0
0.2949999,0.9706661,0.5951821,0.9900739,-0.3195059,0,0,0,0,0,0,0,0,0,0,0,1,0,0,0,0,0,-0.1221924,-1.055542,-0.3377686,0,0,0,0,0,0
0.2999999,0.9380392,0.6346734,0.9865369,-0.239756,0,0,0,0,0,0,0,0,0,0,0,1,0,0,0,0,0,-0.1533203,-1.051147,-0.3208008,0,0,0,0,0,0
0.3049999,0.8912154,0.7153703,0.8804235,-0.05766967,0,0,0,0,0,0,0,0,0,0,0,1,0,0,0,0,0,-0.1755371,-0.9901123,-0.3168945,0,0,0,0,0,0
0.3099999,0.8749644,0.7311347,0.7971615,0.03400215,0,0,0,0,0,0,0,0,0,0,0,1,0,0,0,0,0,-0.1536865,-0.9659424,-0.2319336,0,0,0,0,0,0
0.3149998,0.8668616,0.7390295,0.725372,0.1153155,0,0,0,0,0,0,0,0,0,0,0,1,0,0,0,0,0,-0.1445313,-0.7614746,-0.2443848,0,0,0,0,0,0
0.3199998,0.8587738,0.7469335,0.5820701,0.2639199,0,0,0,0,0,0,0,0,0,0,0,1,0,0,0,0,0,0.02124023,-0.8389893,-0.4970703,0,0,0,0,0,0
0.3249998,0.8593862,0.7554604,0.5272421,0.3192146,0,0,0,0,0,0,0,0,0,0,0,1,0,0,0,0,0,0.1166992,-0.833252,-0.619873,0,0,0,0,0,0
0.3299998,0.8507007,0.7548471,0.4231831,0.4160708,0,0,0,0,0,0,0,0,0,0,0,1,0,0,-0.1894132,-0.05297574,-0.1374371,0.1414795,-0.7598877,-0.7021484,0,0,0,0,0,0
0.3349998,0.8507007,0.7548471,0.3788991,0.4426391,0,0,0,0,0,0,0,0,0,0,0,1,0,0,0,0,0,0.09338379,-0.715332,-0.6314697,0,0,0,0,0,0
0.3399998,0.8513149,0.7633857,0.2991201,0.4821112,0,0,0,0,0,0,0,0,0,0,0,1,0,0,-0.1129483,-0.06147185,-0.1286911,0.03918457,-0.7406006,-0.4825439,0,0,0,0,0,0
0.3449998,0.8426419,0.7627706,0.2631479,0.494718,0,0,0,0,0,0,0,0,0,0,0,1,0,0,0,0,0,0.0604248,-0.7659912,-0.491333,0,0,0,0,0,0
0.3499998,0.8426419,0.7627706,0.2276983,0.5079424,0,0,0,0,0,0,0,0,0,0,0,1,0,0,0,0,0,0.06738281,-0.7545166,-0.4968262,0,0,0,0,0,0
0.3549998,0.8426419,0.7627706,0.1565921,0.5184937,0,0,0,0,0,0,0,0,0,0,0,1,0,0,0,0,0,0.08105469,-0.7685547,-0.545166,0,0,0,0,0,0
0.3599998,0.8426419,0.7627706,0.1287049,0.5252551,0,0,0,0,0,0,0,0,0,0,0,1,0,0,0,0,0,0.0838623,-0.7893066,-0.5439453,0,0,0,0,0,0
0.3649998,0.8426419,0.7627706,0.07225752,0.5126843,0,0,0,0,0,0,0,0,0,0,0,1,0,0,0.02873918,-0.03748589,-0.03123824,0.08312988,-0.7895508,-0.4902344,0,0,0,0,0,0
0.3699998,0.8426419,0.7627706,0.051528,0.5118448,0,0,0,0,0,0,0,0,0,0,0,1,0,0,0,0,0,0.09936523,-0.8051758,-0.5184326,0,0,0,0,0,0
0.3749998,0.8426419,0.7627706,0.03088259,0.5112784,0,0,0,0,0,0,0,0,0,0,0,1,0,0,0,0,0,0.1207275,-0.8236084,-0.5402832,0,0,0,0,0,0
0.3799998,0.8426419,0.7627706,-0.01672429,0.4649353,0,0,0,0,0,0,0,0,0,0,0,1,0,0,0.05647413,-0.007746452,0.01174462,0.137207,-0.7877197,-0.5429688,0,0,0,0,0,0
0.3849998,0.8426419,0.7627706,-0.03598354,0.4285312,0,0,0,0,0,0,0,0,0,0,0,1,0,0,0,0,0,0.1398926,-0.772583,-0.5537109,0,0,0,0,0,0
0.3899998,0.8426419,0.7627706,-0.04749382,0.3831168,0,0,0,0,0,0,0,0,0,0,0,1,0,0,0,0,0,0.1448975,-0.7719727,-0.5649414,0,0,0,0,0,0
0.3949998,0.8426419,0.7627706,-0.07129742,0.276634,0,0,0,0,0,0,0,0,0,0,0,1,0,0,0,0,0,0.130249,-0.777832,-0.5256348,0,0,0,0,0,0
0.3999998,0.8426419,0.7627706,-0.07558697,0.2163351,0,0,0,0,0,0,0,0,0,0,0,1,0,0,0,0,0,0.1137695,-0.8035889,-0.4036865,0,0,0,0,0,0
0.4049998,0.8426419,0.7627706,-0.07610993,0.1591389,0,0,0,0,0,0,0,0,0,0,0,1,0,0,0,0,0,0.06555176,-0.7987061,-0.3891602,0,0,0,0,0,0
0.4099998,0.8599966,0.763997,-0.06137522,0.06767011,0,0,0,0,0,0,0,0,0,0,0,1,0,0,0,0,0,0.05541992,-0.939209,-0.3612061,0,0,0,0,0,0
0.4149998,0.8686867,0.7646044,-0.04521557,0.03825933,0,0,0,0,0,0,0,0,0,0,0,1,0,0,0,0,0,0.1313477,-1.002808,-0.4121094,0,0,0,0,0,0
0.4199997,0.8842907,0.7402433,-0.01816093,0.007916301,0,0,0,0,0,0,0,0,0,0,0,0,0,0,0.1501722,0.07635482,0.06689698,0.07983398,-0.9232178,-0.5053711,0,0,0,0,0,0
0.4249997,0.892418,0.7323431,-0.01251609,0.004172031,0,0,0,0,0,0,0,0,0,0,0,0,0,0,0,0,0,0.02929688,-0.9335938,-0.475708,0,0,0,0,0,0
0.4299997,0.9005606,0.7244509,-0.007979404,0.001841401,0,0,0,0,0,0,0,0,0,0,0,0,0,0,0,0,0,0.05371094,-1.082275,-0.5463867,0,0,0,0,0,0
0.4349997,0.9081243,0.7080969,-0.003980001,0.0003061539,0,0,0,0,0,0,0,0,0,0,0,0,0,0,0.07296658,0.07171715,0.03398444,-0.04602051,-0.9449463,-0.3458252,0,0,0,0,0,0
0.4399997,0.9163012,0.7002302,-0.01315794,0.0009627763,0,0,0,0,0,0,0,0,0,0,0,0,0,0,0,0,0,-0.05004883,-0.947876,-0.3240967,0,0,0,0,0,0
0.4449997,0.9244941,0.6923701,-0.01268743,0,0,0,0,0,0,0,0,0,0,0,0,0,0,0,0,0,0,-0.0760498,-0.9533691,-0.3085938,0,0,0,0,0,0
0.4499997,0.9327032,0.6845161,-0.01268743,0,0,0,0,0,0,0,0,0,0,0,0,0,0,0,-0.01153396,0.07935366,-0.003690868,-0.07800293,-0.9903564,-0.3863525,0,0,0,0,0,0
0.4549997,0.9321206,0.6760875,-0.03114187,0,0,0,0,0,0,0,0,0,0,0,0,0,0,0,0,0,0,-0.05615234,-0.9816895,-0.4456787,0,0,0,0,0,0
0.4599997,0.9403506,0.6682492,-0.04959631,0,0,0,0,0,0,0,0,0,0,0,0,0,0,0,0,0,0,-0.05310059,-0.9593506,-0.4556885,0,0,0,0,0,0
0.4649997,0.9485974,0.6604159,-0.09573241,0,0,0,0,0,0,0,0,0,0,0,0,0,0,0,0,0,0,-0.015625,-0.9378662,-0.4395752,0,0,0,0,0,0
0.4699997,0.9562932,0.6441975,-0.1234141,0,0,0,0,0,0,0,0,0,0,0,0,0,0,0,0,0,0,0.009033203,-0.935791,-0.4343262,0,0,0,0,0,0
0.4749997,0.9723267,0.6202084,-0.1787774,0,0,0,0,0,0,0,0,0,0,0,0,0,0,0,-0.03873226,0.0172421,-0.01874142,0.01452637,-0.9213867,-0.3935547,0,0,0,0,0,0
0.4799997,0.9806534,0.6124081,-0.2249135,0,0,0,0,0,0,0,0,0,0,0,0,0,0,0,0,0,0,0.01049805,-0.9624023,-0.3803711,0,0,0,0,0,0
0.4849997,0.9884557,0.5962749,-0.2618224,0,0,0,0,0,0,0,0,0,0,0,0,0,0,0,0,0,0,-0.03015137,-0.9267578,-0.3858643,0,0,0,0,0,0
0.4899997,0.9962907,0.5801693,-0.3448673,0,0,0,0,0,0,0,0,0,0,0,0,0,0,0,-0.03823249,0.00449794,-0.0189913,-0.03625488,-0.9390869,-0.4499512,0,0,0,0,0,0
0.4949997,1,0.5640897,-0.4281638,0.02287898,0,0,0,0,0,0,0,0,0,0,0,0,0,0,0,0,0,0.03857422,-0.9516602,-0.4697266,0,0,0,0,0,0
0.4999997,1,0.5480344,-0.5123748,0.06533638,0,0,0,0,0,0,0,0,0,0,0,1,0,0,-0.07312533,-0.02283725,-0.02675879,0.0111084,-0.8505859,-0.4299316,0,0,0,0,0,0
0.5049997,1,0.5397605,-0.5408906,0.08724041,0,0,0,0,0,0,0,0,0,0,0,1,0,0,0,0,0,0.009887695,-0.8183594,-0.4193115,0,0,0,0,0,0
0.5099997,1,0.5397605,-0.5878096,0.1104369,0,0,0,0,0,0,0,0,0,0,0,1,0,0,0,0,0,0.0267334,-0.8226318,-0.4316406,0,0,0,0,0,0
0.5149997,1,0.523744,-0.6724989,0.1580189,0,0,0,0,0,0,0,0,0,0,0,1,0,0,-0.04598268,-0.01549417,-0.05822808,0.01831055,-0.8508301,-0.2578125,0,0,0,0,0,0
0.5199997,1,0.523744,-0.7011493,0.1817795,0,0,0,0,0,0,0,0,0,0,0,1,0,0,0,0,0,-0.02185059,-0.8104248,-0.3475342,0,0,0,0,0,0
0.5249997,1,0.5154955,-0.7580091,0.2225002,0,0,0,0,0,0,0,0,0,0,0,1,0,0,-0.01349382,0.01149474,-0.03873226,0.08728027,-0.9741211,-0.4256592,0,0,0,0,0,0
0.5299997,1,0.5154955,-0.7861925,0.239276,0,0,0,0,0,0,0,0,0,0,0,1,0,0,0,0,0,0.1213379,-0.949707,-0.5031738,0,0,0,0,0,0
0.5349997,1,0.5154955,-0.8139126,0.2483771,0,0,0,0,0,0,0,0,0,0,0,1,0,0,0,0,0,0.138916,-0.9160156,-0.5693359,0,0,0,0,0,0
0.5399997,1,0.5154955,-0.8425117,0.2731431,0,0,0,0,0,0,0,0,0,0,0,1,0,0,0.0133794,-0.02029977,-0.01176464,0.1158447,-0.9005127,-0.5556641,0,0,0,0,0,0
0.5449997,1,0.5154955,-0.8425117,0.2731431,0,0,0,0,0,0,0,0,0,0,0,1,0,0,0,0,0,0.09155273,-0.9022217,-0.5220947,0,0,0,0,0,0
0.5499997,1,0.5154955,-0.8515949,0.2735893,0,0,0,0,0,0,0,0,0,0,0,1,0,0,0,0,0,0.08630371,-0.9196777,-0.5090332,0,0,0,0,0,0
0.5549996,1,0.5154955,-0.8697717,0.2744613,0,0,0,0,0,0,0,0,0,0,0,1,0,0,0,0,0,0.08483887,-0.925293,-0.489624,0,0,0,0,0,0
0.5599996,1,0.5154955,-0.8697717,0.2744613,0,0,0,0,0,0,0,0,0,0,0,1,0,0,0,0,0,0.07592773,-0.9207764,-0.4710693,0,0,0,0,0,0
0.5649996,1,0.5154955,-0.8697717,0.2744613,0,0,0,0,0,0,0,0,0,0,0,1,0,0,0,0,0,0.07592773,-0.9207764,-0.4753418,0,0,0,0,0,0
0.5699996,1,0.5154955,-0.8697717,0.2744613,0,0,0,0,0,0,0,0,0,0,0,1,0,0,0,0,0,0.07861328,-0.8891602,-0.4926758,0,0,0,0,0,0
0.5749996,1,0.5154955,-0.8697717,0.2744613,0,0,0,0,0,0,0,0,0,0,0,1,0,0,0,0,0,0.07836914,-0.8778076,-0.4968262,0,0,0,0,0,0
0.5799996,1,0.5154955,-0.8685246,0.2509071,0,0,0,0,0,0,0,0,0,0,0,1,0,0,0.04173429,-0.01849304,0.008996612,0.08422852,-0.87854,-0.5272217,0,0,0,0,0,0
0.5849996,1,0.5154955,-0.8677402,0.235254,0,0,0,0,0,0,0,0,0,0,0,1,0,0,0,0,0,0.08337402,-0.8638916,-0.532959,0,0,0,0,0,0
0.5899996,1,0.5232409,-0.8669957,0.2196389,0,0,0,0,0,0,0,0,0,0,0,1,0,0,0,0,0,0.07946777,-0.8586426,-0.5267334,0,0,0,0,0,0
0.5949996,0.9868394,0.5713281,-0.8653202,0.1807558,0,0,0,0,0,0,0,0,0,0,0,1,0,0,0.07721464,-0.01824165,0.01224439,0.07006836,-0.8597412,-0.470459,0,0,0,0,0,0
0.5999996,0.9706661,0.5951821,-0.8641844,0.149792,0,0,0,0,0,0,0,0,0,0,0,1,0,0,0,0,0,0.03417969,-0.8409424,-0.4212646,0,0,0,0,0,0
0.6049996,0.9551592,0.6274477,-0.8634596,0.1266408,0,0,0,0,0,0,0,0,0,0,0,1,0,0,0,0,0,0.02502441,-0.8427734,-0.413208,0,0,0,0,0,0
0.6099996,0.9075292,0.6996371,-0.8620933,0.06513593,0,0,0,0,0,0,0,0,0,0,0,1,0,0,0,0,0,0.04919434,-0.8729248,-0.4573975,0,0,0,0,0,0
0.6149996,0.8836871,0.731741,-0.8618022,0.04213255,0,0,0,0,0,0,0,0,0,0,0,1,0,0,0,0,0,0.04467773,-0.868042,-0.4801025,0,0,0,0,0,0
0.6199996,0.8593862,0.7554604,-0.8615917,0,0,0,0,0,0,0,0,0,0,0,0,1,0,0,0,0,0,0.04199219,-0.8989258,-0.4827881,0,0,0,0,0,0
0.6249996,0.8197833,0.8037875,-0.8618855,-0.04979783,0,0,0,0,0,0,0,0,0,0,0,0,0,0,0.1697649,0.007381084,0.03713608,0.02441406,-0.90625,-0.4467773,0,0,0,0,0,0
0.6299996,0.7878387,0.8358289,-0.8622175,-0.07280949,0,0,0,0,0,0,0,0,0,0,0,0,0,0,0,0,0,0.01367188,-0.9089355,-0.4595947,0,0,0,0,0,0
0.6349996,0.7646044,0.8686867,-0.8628488,-0.1035419,0,0,0,0,0,0,0,0,0,0,0,0,0,0,0,0,0,0.008056641,-0.9534912,-0.4488525,0,0,0,0,0,0
0.6399996,0.6996371,0.9075292,-0.8639304,-0.1420685,0,0,0,0,0,0,0,0,0,0,0,0,0,0,0.1246929,-0.0002498855,0.03023615,0.01708984,-1.081177,-0.4921875,0,0,0,0,0,0
0.6449996,0.6760875,0.9321206,-0.8644505,-0.1575221,0,0,0,0,0,0,0,0,0,0,0,0,0,0,0,0,0,-0.03540039,-0.9648438,-0.3640137,0,0,0,0,0,0
0.6499996,0.6436275,0.9474515,-0.8647287,-0.1652593,0,0,0,0,0,0,0,0,0,0,0,0,0,0,0,0,0,-0.04321289,-0.9555664,-0.3399658,0,0,0,0,0,0
0.6549996,0.5713281,0.9868394,-0.8650186,-0.1730037,0,0,0,0,0,0,0,0,0,0,0,0,0,0,0,0,0,-0.03857422,-0.9453125,-0.3421631,0,0,0,0,0,0
0.6599995,0.5392466,1,-0.8650186,-0.1730037,0,0,0,0,0,0,0,0,0,0,0,0,0,0,0,0,0,-0.01037598,-0.9675293,-0.3607178,0,0,0,0,0,0
0.6649995,0.4580168,1,-0.8650186,-0.1730037,0,0,0,0,0,0,0,0,0,0,0,0,0,0,0.01914638,0.003921547,-0.024452,0.02539063,-0.9595947,-0.4421387,0,0,0,0,0,0
0.6699995,0.4253754,1,-0.8650186,-0.1730037,0,0,0,0,0,0,0,0,0,0,0,0,0,0,0,0,0,0.01831055,-0.9436035,-0.4482422,0,0,0,0,0,0
0.6749995,0.4009901,1,-0.8650186,-0.1730037,0,0,0,0,0,0,0,0,0,0,0,0,0,0,0,0,0,0.0123291,-0.9343262,-0.4324951,0,0,0,0,0,0
0.6799995,0.3283107,1,-0.8647287,-0.1652593,0,0,0,0,0,0,0,0,0,0,0,0,0,0,0.008496109,-0.009245765,-0.04372997,0.02148438,-0.9421387,-0.3977051,0,0,0,0,0,0
0.6849995,0.3042357,1,-0.8644505,-0.1575221,0,0,0,0,0,0,0,0,0,0,0,0,0,0,0,0,0,0.03405762,-0.9661865,-0.3444824,0,0,0,0,0,0
0.6899995,0.2882255,1,-0.8731174,-0.1423143,0,0,0,0,0,0,0,0,0,0,0,0,0,0,0,0,0,0.01794434,-1.020142,-0.2991943,0,0,0,0,0,0
0.6949995,0.2562958,1,-0.8722416,-0.1114317,0,0,0,0,0,0,0,0,0,0,0,0,0,0,-0.041481,0.004248055,-0.03873226,-0.01416016,-0.9968262,-0.3549805,0,0,0,0,0,0
0.6999995,0.2483314,1,-0.8807835,-0.08077054,0,0,0,0,0,0,0,0,0,0,0,0,0,0,0,0,0,-0.003051758,-0.9985352,-0.3786621,0,0,0,0,0,0
0.7049995,0.2483314,1,-0.8896443,-0.0577691,0,0,0,0,0,0,0,0,0,0,0,0,0,0,0,0,0,0.006958008,-0.9815674,-0.3903809,0,0,0,0,0,0
0.7099995,0.2483314,1,-0.9169565,-0.003869015,0,0,0,0,0,0,0,0,0,0,0,1,0,0,0,0,0,0.01196289,-0.9398193,-0.3986816,0,0,0,0,0,0
0.7149995,0.2483314,1,-0.9170821,0.03482591,0,0,0,0,0,0,0,0,0,0,0,1,0,0,0,0,0,-0.005859375,-0.8809814,-0.3924561,0,0,0,0,0,0
0.7199995,0.2483314,1,-0.9454219,0.08948438,0,0,0,0,0,0,0,0,0,0,0,1,0,0,0,0,0,-0.008789063,-0.8765869,-0.3953857,0,0,0,0,0,0
0.7249995,0.2483314,1,-0.9550873,0.1130512,0,0,0,0,0,0,0,0,0,0,0,1,0,0,0,0,0,0.0234375,-0.911499,-0.3774414,0,0,0,0,0,0
0.7299995,0.2562958,1,-0.9648366,0.1367177,0,0,0,0,0,0,0,0,0,0,0,1,0,0,0,0,0,0.0168457,-0.857666,-0.2719727,0,0,0,0,0,0
0.7349995,0.2962267,1,-0.9937412,0.1846081,0,0,0,0,0,0,0,0,0,0,0,1,0,0,0,0,0,0.03894043,-0.913208,-0.3892822,0,0,0,0,0,0
0.7399995,0.3202776,1,-1,0.1927661,0,0,0,0,0,0,0,0,0,0,0,1,0,0,0,0,0,0.0949707,-0.9207764,-0.4194336,0,0,0,0,0,0
0.7449995,0.3928797,1,-1,0.2244794,0,0,0,0,0,0,0,0,0,0,0,1,0,0,-0.07297252,0.006497554,-0.03073842,0.1094971,-0.8662109,-0.519165,0,0,0,0,0,0
0.7499995,0.4253754,1,-1,0.2324234,0,0,0,0,0,0,0,0,0,0,0,1,0,0,0,0,0,0.1138916,-0.8582764,-0.5203857,0,0,0,0,0,0
0.7549995,0.4743927,1,-1,0.2403741,0,0,0,0,0,0,0,0,0,0,0,1,0,0,0,0,0,0.1094971,-0.8695068,-0.510376,0,0,0,0,0,0
0.7599995,0.5723898,1,-1,0.2403741,0,0,0,0,0,0,0,0,0,0,0,1,0,0,-0.02722255,-0.008074486,-0.0004613992,0.09753418,-0.9105225,-0.487793,0,0,0,0,0,0
0.7649994,0.6207611,0.981203,-1,0.2403741,0,0,0,0,0,0,0,0,0,0,0,1,0,0,0,0,0,0.09033203,-0.9123535,-0.4699707,0,0,0,0,0,0
0.7699994,0.6688248,0.9491705,-1,0.2403741,0,0,0,0,0,0,0,0,0,0,0,1,0,0,0,0,0,0.08117676,-0.9095459,-0.4659424,0,0,0,0,0,0
0.7749994,0.7323431,0.892418,-1,0.2165419,0,0,0,0,0,0,0,0,0,0,0,1,0,0,-0.01049519,-0.007246681,0.02298947,0.07971191,-0.9125977,-0.4946289,0,0,0,0,0,0
0.7799994,0.7572768,0.885493,-1,0.2006854,0,0,0,0,0,0,0,0,0,0,0,1,0,0,0,0,0,0.1048584,-0.9111328,-0.5037842,0,0,0,0,0,0
0.7849994,0.7810984,0.8612111,-1,0.1769445,0,0,0,0,0,0,0,0,0,0,0,1,0,0,0,0,0,0.1160889,-0.8991699,-0.5147705,0,0,0,0,0,0
0.7899994,0.8277996,0.7958074,-0.9830512,0.1292458,0,0,0,0,0,0,0,0,0,0,0,1,0,0,0,0,0,0.06848145,-0.8656006,-0.4276123,0,0,0,0,0,0
0.7949994,0.8438712,0.7798811,-0.9547756,0.09742608,0,0,0,0,0,0,0,0,0,0,0,1,0,0,0,0,0,0.0456543,-0.8793945,-0.3977051,0,0,0,0,0,0
0.7999994,0.8525369,0.7804915,-0.9359553,0.07378901,0,0,0,0,0,0,0,0,0,0,0,1,0,0,0,0,0,0.05859375,-0.9205322,-0.3961182,0,0,0,0,0,0
0.8049994,0.8755721,0.7396386,-0.8709028,0.02685603,0,0,0,0,0,0,0,0,0,0,0,1,0,0,0,0,0,0.1114502,-0.9694824,-0.4484863,0,0,0,0,0,0
0.8099994,0.8836871,0.731741,-0.8431391,-0.003815109,0,0,0,0,0,0,0,0,0,0,0,1,0,0,0,0,0,0.1141357,-0.9577637,-0.4606934,0,0,0,0,0,0
0.8149994,0.8993645,0.7075,-0.7881143,-0.04902147,0,0,0,0,0,0,0,0,0,0,0,0,0,0,0.09945446,0.02398901,0.09520639,0.07885742,-0.9694824,-0.4306641,0,0,0,0,0,0
0.8199994,0.8993645,0.7075,-0.7424368,-0.07088593,0,0,0,0,0,0,0,0,0,0,0,0,0,0,0,0,0,0.06750488,-0.9443359,-0.4130859,0,0,0,0,0,0
0.8249994,0.9075292,0.6996371,-0.7062215,-0.09243737,0,0,0,0,0,0,0,0,0,0,0,0,0,0,0,0,0,0.0645752,-0.9349365,-0.4279785,0,0,0,0,0,0
0.8299994,0.9075292,0.6996371,-0.6339675,-0.1195482,0,0,0,0,0,0,0,0,0,0,0,0,0,0,0,0,0,0.07006836,-0.9853516,-0.496582,0,0,0,0,0,0
0.8349994,0.9075292,0.6996371,-0.5977548,-0.125278,0,0,0,0,0,0,0,0,0,0,0,0,0,0,0,0,0,0.02148438,-0.9445801,-0.4219971,0,0,0,0,0,0
0.8399994,0.9075292,0.6996371,-0.5434617,-0.1297296,0,0,0,0,0,0,0,0,0,0,0,0,0,0,0,0,0,0.01550293,-0.8603516,-0.3901367,0,0,0,0,0,0
0.8449994,0.9075292,0.6996371,-0.4707595,-0.1253101,0,0,0,0,0,0,0,0,0,0,0,0,0,0,0,0,0,0.03527832,-0.8399658,-0.4197998,0,0,0,0,0,0
0.8499994,0.9075292,0.6996371,-0.4255248,-0.1220497,0,0,0,0,0,0,0,0,0,0,0,0,0,0,0,0,0,0.02148438,-0.8598633,-0.4207764,0,0,0,0,0,0
0.8549994,0.9075292,0.6996371,-0.3625753,-0.1166547,0,0,0,0,0,0,0,0,0,0,0,0,0,0,0.05651642,0.02145317,0.04636653,-0.01135254,-0.8804932,-0.4432373,0,0,0,0,0,0
0.8599994,0.9075292,0.6996371,-0.3268755,-0.1130317,0,0,0,0,0,0,0,0,0,0,0,0,0,0,0,0,0,-0.02062988,-0.8833008,-0.4066162,0,0,0,0,0,0
0.8649994,0.8993645,0.7075,-0.3091218,-0.1110438,0,0,0,0,0,0,0,0,0,0,0,0,0,0,0,0,0,-0.01916504,-0.8894043,-0.3613281,0,0,0,0,0,0
0.8699993,0.8668616,0.7390295,-0.2914443,-0.1089236,0,0,0,0,0,0,0,0,0,0,0,0,0,0,0.01224439,0.01449336,0.0242389,0.02636719,-1.00708,-0.2893066,0,0,0,0,0,0
0.8749993,0.8507007,0.7548471,-0.2826375,-0.1078102,0,0,0,0,0,0,0,0,0,0,0,0,0,0,0,0,0,-0.03808594,-0.9938965,-0.3112793,0,0,0,0,0,0
0.8799993,0.826566,0.7786492,-0.2826375,-0.1078102,0,0,0,0,0,0,0,0,0,0,0,0,0,0,0,0,0,-0.06091309,-0.9976807,-0.3327637,0,0,0,0,0,0
0.8849993,0.771321,0.8432577,-0.276634,-0.07129742,0,0,0,0,0,0,0,0,0,0,0,0,0,0,-0.05074943,0.008304453,0.009457849,-0.009399414,-1.038818,-0.3789063,0,0,0,0,0,0
0.8899993,0.7475448,0.8674718,-0.2736989,-0.04796785,0,0,0,0,0,0,0,0,0,0,0,1,0,0,0,0,0,-0.007446289,-1.016602,-0.3701172,0,0,0,0,0,0
0.8949993,0.7232483,0.8830822,-0.2718043,-0.02521896,0,0,0,0,0,0,0,0,0,0,0,1,0,0,0,0,0,-0.03295898,-0.9279785,-0.3702393,0,0,0,0,0,0
0.8999993,0.6833416,0.9151183,-0.2810015,0.02554559,0,0,0,0,0,0,0,0,0,0,0,1,0,0,0,0,0,-0.0480957,-0.8481445,-0.4324951,0,0,0,0,0,0
0.9049993,0.6760875,0.9321206,-0.3005733,0.04377282,0,0,0,0,0,0,0,0,0,0,0,1,0,0,0,0,0,-0.07507324,-0.8149414,-0.2794189,0,0,0,0,0,0
0.9099993,0.6514414,0.9391946,-0.3692079,0.09782433,0,0,0,0,0,0,0,0,0,0,0,1,0,0,-0.05622425,0.02348924,-0.07771441,-0.05493164,-0.8127441,-0.4042969,0,0,0,0,0,0
0.9149993,0.6436275,0.9474515,-0.4090202,0.1341586,0,0,0,0,0,0,0,0,0,0,0,1,0,0,0,0,0,0.05200195,-0.8808594,-0.434082,0,0,0,0,0,0
0.9199993,0.6436275,0.9474515,-0.4569556,0.165858,0,0,0,0,0,0,0,0,0,0,0,1,0,0,0,0,0,0.1043701,-0.8752441,-0.5175781,0,0,0,0,0,0
0.9249993,0.6436275,0.9474515,-0.5159986,0.2211423,0,0,0,0,0,0,0,0,0,0,0,1,0,0,-0.05847798,-0.0294889,-0.09946255,0.09912109,-0.8939209,-0.5931396,0,0,0,0,0,0
0.9299993,0.6436275,0.9474515,-0.5369573,0.2524766,0,0,0,0,0,0,0,0,0,0,0,1,0,0,0,0,0,0.06774902,-0.9191895,-0.5200195,0,0,0,0,0,0
0.9349993,0.6436275,0.9474515,-0.5570661,0.2767361,0,0,0,0,0,0,0,0,0,0,0,1,0,0,0,0,0,0.06970215,-0.9674072,-0.5266113,0,0,0,0,0,0
0.9399993,0.6436275,0.9474515,-0.5955452,0.3105604,0,0,0,0,0,0,0,0,0,0,0,1,0,0,0,0,0,0.1170654,-0.9310303,-0.5136719,0,0,0,0,0,0
0.9449993,0.6520168,0.9480243,-0.605929,0.3268344,0,0,0,0,0,0,0,0,0,0,0,1,0,0,0,0,0,0.1308594,-0.9036865,-0.512207,0,0,0,0,0,0
0.9499993,0.6688248,0.9491705,-0.6147377,0.3276147,0,0,0,0,0,0,0,0,0,0,0,1,0,0,0,0,0,0.1303711,-0.8920898,-0.5043945,0,0,0,0,0,0
0.9549993,0.7080969,0.9081243,-0.6147377,0.3276147,0,0,0,0,0,0,0,0,0,0,0,1,0,0,0,0,0,0.09301758,-0.8942871,-0.4959717,0,0,0,0,0,0
0.9599993,0.7402433,0.8842907,-0.6147377,0.3276147,0,0,0,0,0,0,0,0,0,0,0,1,0,0,0,0,0,0.08874512,-0.892334,-0.4956055,0,0,0,0,0,0
0.9649993,0.808669,0.7688331,-0.6132019,0.3121088,0,0,0,0,0,0,0,0,0,0,0,1,0,0,0.0007497177,-0.02324125,0.01599398,0.06982422,-0.871582,-0.5296631,0,0,0,0,0,0
0.9699993,0.8463467,0.6953552,-0.6116935,0.2966897,0,0,0,0,0,0,0,0,0,0,0,1,0,0,0,0,0,0.07397461,-0.861084,-0.5234375,0,0,0,0,0,0
0.9749992,0.8839297,0.6143906,-0.6102167,0.2813574,0,0,0,0,0,0,0,0,0,0,0,1,0,0,0,0,0,0.07739258,-0.8522949,-0.5114746,0,0,0,0,0,0
0.9799992,0.9441552,0.4622015,-0.5963836,0.2277101,0,0,0,0,0,0,0,0,0,0,0,1,0,0,0,0,0,0.02697754,-0.8319092,-0.3659668,0,0,0,0,0,0
0.9849992,0.9762193,0.3991828,-0.5848101,0.1973285,0,0,0,0,0,0,0,0,0,0,0,1,0,0,0,0,0,0.03051758,-0.8482666,-0.3546143,0,0,0,0,0,0
0.9899992,0.9900739,0.3195059,-0.5739664,0.1746854,0,0,0,0,0,0,0,0,0,0,0,1,0,0,0,0,0,0.04919434,-0.890625,-0.3586426,0,0,0,0,0,0
0.9949992,1,0.1927661,-0.5516399,0.1159498,0,0,0,0,0,0,0,0,0,0,0,1,0,0,0,0,0,0.07910156,-0.9864502,-0.3842773,0,0,0,0,0,0
0.9999992,1,0.1374799,-0.5408906,0.08724041,0,0,0,0,0,0,0,0,0,0,0,1,0,0,0,0,0,0.07861328,-0.9825439,-0.3779297,0,0,0,0,0,0
1.004999,1,0.06669273,-0.5208349,0.04484009,0,0,0,0,0,0,0,0,0,0,0,0,0,0,0.07246681,0.03098581,0.04223066,0.05102539,-0.9138184,-0.3754883,0,0,0,0,0,0
1.009999,1,0.02745281,-0.5111518,0.02401384,0,0,0,0,0,0,0,0,0,0,0,0,0,0,0,0,0,0.04284668,-0.9129639,-0.3955078,0,0,0,0,0,0
1.014999,1,-0.035298,-0.48328,-0.00337958,0,0,0,0,0,0,0,0,0,0,0,0,0,0,0.08596063,0.06322104,0.05822334,0.06408691,-0.9343262,-0.4727783,0,0,0,0,0,0
1.019999,1,-0.1059862,-0.4558239,-0.02329027,0,0,0,0,0,0,0,0,0,0,0,0,0,0,0,0,0,0.01318359,-0.8874512,-0.3448486,0,0,0,0,0,0
1.024999,1,-0.1611441,-0.4285312,-0.03598354,0,0,0,0,0,0,0,0,0,0,0,0,0,0,0,0,0,-0.0004882813,-0.8925781,-0.3580322,0,0,0,0,0,0
1.029999,1,-0.1848525,-0.4101162,-0.03552187,0,0,0,0,0,0,0,0,0,0,0,0,0,0,0,0,0,0.002441406,-0.9259033,-0.3647461,0,0,0,0,0,0
1.034999,1,-0.2403741,-0.4011773,-0.04172244,0,0,0,0,0,0,0,0,0,0,0,0,0,0,0.002768395,0.03045235,-0.01591827,0.01123047,-0.9547119,-0.447998,0,0,0,0,0,0
1.039999,1,-0.2642672,-0.3919809,-0.04142888,0,0,0,0,0,0,0,0,0,0,0,0,0,0,0,0,0,0.002441406,-0.947998,-0.4468994,0,0,0,0,0,0
1.044999,1,-0.2962267,-0.382786,-0.04112577,0,0,0,0,0,0,0,0,0,0,0,0,0,0,0,0,0,0.005371094,-0.9377441,-0.423584,0,0,0,0,0,0
1.049999,1,-0.3520505,-0.3735927,-0.04081265,0,0,0,0,0,0,0,0,0,0,0,0,0,0,0,0,0,0.05847168,-0.9915771,-0.3808594,0,0,0,0,0,0
1.054999,0.9739717,-0.3588317,-0.3644011,-0.04048901,0,0,0,0,0,0,0,0,0,0,0,0,0,0,0,0,0,0.04174805,-1.044312,-0.3183594,0,0,0,0,0,0
1.059999,0.9020422,-0.3631598,-0.3552114,-0.04015433,0,0,0,0,0,0,0,0,0,0,0,0,0,0,-0.04572906,0.001999084,-0.01324393,-0.02307129,-1.014648,-0.3458252,0,0,0,0,0,0
1.064999,0.8569525,-0.360618,-0.3546325,-0.02775385,0,0,0,0,0,0,0,0,0,0,0,0,0,0,0,0,0,0.005859375,-1.022095,-0.3817139,0,0,0,0,0,0
1.069999,0.8119907,-0.3578916,-0.3542611,-0.01540266,0,0,0,0,0,0,0,0,0,0,0,0,0,0,0,0,0,0.02929688,-1.020142,-0.3983154,0,0,0,0,0,0
1.074999,0.7308092,-0.3445784,-0.3456976,0.03365198,0,0,0,0,0,0,0,0,0,0,0,1,0,0,-0.09941398,-0.01499283,-0.009687673,0.04418945,-0.9813232,-0.3857422,0,0,0,0,0,0
1.079999,0.6855929,-0.3334304,-0.3473102,0.0583973,0,0,0,0,0,0,0,0,0,0,0,1,0,0,0,0,0,0.02783203,-0.9282227,-0.3984375,0,0,0,0,0,0
1.084999,0.6301698,-0.3058719,-0.3406399,0.08285837,0,0,0,0,0,0,0,0,0,0,0,1,0,0,0,0,0,0.009765625,-0.8679199,-0.411499,0,0,0,0,0,0
1.089999,0.4726289,-0.22424,-0.347556,0.1346388,0,0,0,0,0,0,0,0,0,0,0,1,0,0,0,0,0,0.04223633,-0.8525391,-0.4462891,0,0,0,0,0,0
1.094999,0.3702963,-0.1706583,-0.3506705,0.1548005,0,0,0,0,0,0,0,0,0,0,0,1,0,0,0,0,0,0.04650879,-0.8278809,-0.3825684,0,0,0,0,0,0
1.099999,0.1232427,-0.04108091,-0.3586367,0.2035506,0,0,0,0,0,0,0,0,0,0,0,1,0,0,-0.07771441,-0.03048604,-0.06621967,0.01660156,-0.8198242,-0.463501,0,0,0,0,0,0
1.104999,0,0,-0.3634503,0.2324772,0,0,0,0,0,0,0,0,0,0,0,1,0,0,0,0,0,0.06726074,-0.852417,-0.473999,0,0,0,0,0,0
1.109999,0,0,-0.3743057,0.248433,0,0,0,0,0,0,0,0,0,0,0,1,0,0,0,0,0,0.1588135,-0.8532715,-0.5595703,0,0,0,0,0,0
1.114999,0,0,-0.3779096,0.270891,0,0,0,0,0,0,0,0,0,0,0,1,0,0,0.009995421,-0.04422975,-0.03698306,0.1230469,-0.8532715,-0.5603027,0,0,0,0,0,0
1.119999,0,0,-0.3791113,0.2784623,0,0,0,0,0,0,0,0,0,0,0,1,0,0,0,0,0,0.0690918,-0.8587646,-0.5198975,0,0,0,0,0,0
1.124999,0,0,-0.3791113,0.2784623,0,0,0,0,0,0,0,0,0,0,0,1,0,0,0,0,0,0.02514648,-0.8897705,-0.4881592,0,0,0,0,0,0
1.129999,0,0,-0.3791113,0.2784623,0,0,0,0,0,0,0,0,0,0,0,1,0,0,0.006689108,-0.03436818,-0.02837104,0.003295898,-0.9520264,-0.4743652,0,0,0,0,0,0
1.134999,0,0,-0.3791113,0.2784623,0,0,0,0,0,0,0,0,0,0,0,1,0,0,0,0,0,0.03222656,-0.9554443,-0.4763184,0,0,0,0,0,0
1.139999,0,0,-0.3791113,0.2784623,0,0,0,0,0,0,0,0,0,0,0,1,0,0,0,0,0,0.06542969,-0.9335938,-0.482666,0,0,0,0,0,0
1.144999,0,0,-0.3624837,0.2760197,0,0,0,0,0,0,0,0,0,0,0,1,0,0,0,0,0,0.09887695,-0.8826904,-0.5014648,0,0,0,0,0,0
1.149999,0,0,-0.3377928,0.272202,0,0,0,0,0,0,0,0,0,0,0,1,0,0,0,0,0,0.1026611,-0.8668213,-0.4969482,0,0,0,0,0,0
1.154999,0,0,-0.2974046,0.2654256,0,0,0,0,0,0,0,0,0,0,0,1,0,0,-0.009246519,-0.006497554,0.007247271,0.09912109,-0.8410645,-0.5223389,0,0,0,0,0,0
1.159999,0,0,-0.2613705,0.236771,0,0,0,0,0,0,0,0,0,0,0,1,0,0,0,0,0,0.09411621,-0.8376465,-0.4903564,0,0,0,0,0,0
1.164999,0,0,-0.2178666,0.206247,0,0,0,0,0,0,0,0,0,0,0,1,0,0,0,0,0,0.07373047,-0.8200684,-0.4422607,0,0,0,0,0,0
1.169999,0,0,-0.1409229,0.1265917,0,0,0,0,0,0,0,0,0,0,0,1,0,0,0.0579056,0.02053226,0.01960946,0.05737305,-0.8583984,-0.427124,0,0,0,0,0,0
1.174999,0,0,-0.08663872,0.07926521,0,0,0,0,0,0,0,0,0,0,0,1,0,0,0,0,0,0.07250977,-0.9078369,-0.4335938,0,0,0,0,0,0
1.179999,0,0,-0.04521557,0.03825933,0,0,0,0,0,0,0,0,0,0,0,1,0,0,0,0,0,0.0994873,-0.9509277,-0.4487305,0,0,0,0,0,0
1.184999,0,0,0,0,0,0,0,0,0,0,0,0,0,0,0,1,0,0,0,0,0,0.1226807,-0.9838867,-0.456665,0,0,0,0,0,0
1.189999,0,0,0,0,0,0,0,0,0,0,0,0,0,0,0,0,0,0,0,0,0,0.04016113,-1.009033,-0.4106445,0,0,0,0,0,0
1.194999,0,0,0,0,0,0,0,0,0,0,0,0,0,0,0,0,0,0,0.06347093,0.03648329,0.06247139,0.03820801,-0.9864502,-0.3717041,0,0,0,0,0,0
1.199999,0,0,0,0,0,0,0,0,0,0,0,0,0,0,0,0,0,0,0,0,0,0.0480957,-0.9736328,-0.362915,0,0,0,0,0,0
1.204999,0,0,0,0,0,0,0,0,0,0,0,0,0,0,0,0,0,0,0,0,0,0.06359863,-0.9833984,-0.3724365,0,0,0,0,0,0
1.209999,0,0,0,0,0,0,0,0,0,0,0,0,0,0,0,0,0,0,-0.00449794,0.02798718,0.04872768,0.03894043,-0.9956055,-0.4428711,0,0,0,0,0,0
1.214999,0,0,0,0,0,0,0,0,0,0,0,0,0,0,0,0,0,0,0,0,0,0.02246094,-0.9522705,-0.390625,0,0,0,0,0,0
1.219999,0,0,0,0,0,0,0,0,0,0,0,0,0,0,0,0,0,0,0,0,0,0.001586914,-0.9155273,-0.364502,0,0,0,0,0,0
1.224999,0,0,0,0,0,0,0,0,0,0,0,0,0,0,0,0,0,0,-0.02323936,0.02973638,0.01624256,-0.008300781,-0.869751,-0.3634033,0,0,0,0,0,0
1.229999,0.03427453,0.01355039,0,0,0,0,0,0,0,0,0,0,0,0,0,0,0,0,0,0,0,-0.002197266,-0.8769531,-0.3773193,0,0,0,0,0,0
1.234999,0.07442587,0.0335646,0,0,0,0,0,0,0,0,0,0,0,0,0,0,0,0,0,0,0,0.01135254,-0.8919678,-0.4068604,0,0,0,0,0,0
1.239999,0.1829298,0.1027414,0,0,0,0,0,0,0,0,0,0,0,0,0,0,0,0,0,0,0,0.02722168,-0.894043,-0.4484863,0,0,0,0,0,0
1.244999,0.2325748,0.1429074,0,0,0,0,0,0,0,0,0,0,0,0,0,0,0,0,0,0,0,0.02148438,-0.880127,-0.4406738,0,0,0,0,0,0
1.249999,0.3382424,0.2287163,0,0,0,0,0,0,0,0,0,0,0,0,0,0,0,0,-0.01524302,-0.001749199,0.002498855,0.02539063,-0.9147949,-0.3862305,0,0,0,0,0,0
1.254999,0.3707816,0.2772511,0,0,0,0,0,0,0,0,0,0,0,0,0,0,0,0,0,0,0,0.003540039,-0.9610596,-0.355957,0,0,0,0,0,0
1.259999,0.4027953,0.327056,0,0,0,0,0,0,0,0,0,0,0,0,0,0,0,0,0,0,0,-0.01831055,-0.9798584,-0.3414307,0,0,0,0,0,0
1.264999,0.4426905,0.4426905,0,0,0,0,0,0,0,0,0,0,0,0,0,0,0,0,-0.05766472,0.00622779,0.01360887,-0.0213623,-0.9946289,-0.37146,0,0,0,0,0,0
1.269999,0.4495804,0.5007522,0,0,0,0,0,0,0,0,0,0,0,0,0,0,0,0,0,0,0,-0.001708984,-0.987793,-0.3829346,0,0,0,0,0,0
1.274999,0.4551304,0.5513369,0,0,0,0,0,0,0,0,0,0,0,0,0,0,0,0,0,0,0,0.01281738,-0.9748535,-0.3825684,0,0,0,0,0,0
1.279999,0.4505593,0.6701596,0,0,0,0,0,0,0,0,0,0,0,0,0,1,0,0,-0.1042108,0.005248024,0.008496801,0.01074219,-0.9102783,-0.3782959,0,0,0,0,0,0
1.284999,0.4321744,0.7381385,0,0,0,0,0,0,0,0,0,0,0,0,0,1,0,0,0,0,0,0.008911133,-0.8504639,-0.401001,0,0,0,0,0,0
1.289999,0.3977886,0.8148872,0,0,0,0,0,0,0,0,0,0,0,0,0,1,0,0,0,0,0,0.02050781,-0.8162842,-0.4281006,0,0,0,0,0,0
1.294999,0.3023374,0.9619826,0,0,0,0,0,0,0,0,0,0,0,0,0,1,0,0,0,0,0,0.08093262,-0.8554688,-0.4720459,0,0,0,0,0,0
1.299999,0.2642672,1,0,0,0,0,0,0,0,0,0,0,0,0,0,1,0,0,0,0,0,0.08227539,-0.8745117,-0.394043,0,0,0,0,0,0
1.304999,0.1927661,1,0,0,0,0,0,0,0,0,0,0,0,0,0,1,0,0,-0.06205272,0.006689698,-0.05098011,0.002441406,-0.829834,-0.5067139,0,0,0,0,0,0
1.309999,0.1611441,1,0,0,0,0,0,0,0,0,0,0,0,0,0,1,0,0,0,0,0,0.008422852,-0.873291,-0.4838867,0,0,0,0,0,0
1.314999,0.1296006,1,0,0,0,0,0,0,0,0,0,0,0,0,0,1,0,0,0,0,0,0.005615234,-0.8952637,-0.4696045,0,0,0,0,0,0
1.319999,0.05099206,1,0,0,0,0,0,0,0,0,0,0,0,0,0,1,0,0,-0.03998494,-0.003748589,-0.05597892,0.03625488,-0.885376,-0.5352783,0,0,0,0,0,0
1.324999,0.01176485,1,0,0,0,0,0,0,0,0,0,0,0,0,0,1,0,0,0,0,0,0.04931641,-0.8831787,-0.5209961,0,0,0,0,0,0
1.329999,-0.035298,1,0,0,0,0,0,0,0,0,0,0,0,0,0,1,0,0,0,0,0,0.06494141,-0.8911133,-0.5240479,0,0,0,0,0,0
1.334999,-0.1453634,1,0,0,0,0,0,0,0,0,0,0,0,0,0,1,0,0,-0.02723753,-0.02898672,-0.0467286,0.07678223,-0.8914795,-0.5091553,0,0,0,0,0,0
1.339999,-0.2006854,1,0,0,0,0,0,0,0,0,0,0,0,0,0,1,0,0,0,0,0,0.07910156,-0.8803711,-0.4893799,0,0,0,0,0,0
1.344999,-0.2403741,1,0,0,0,0,0,0,0,0,0,0,0,0,0,1,0,0,0,0,0,0.07922363,-0.8765869,-0.4777832,0,0,0,0,0,0
1.349999,-0.3444016,1,0,0,0,0,0,0,0,0,0,0,0,0,0,1,0,0,-0.005247597,-0.02848695,-0.02099039,0.09716797,-0.8797607,-0.5054932,0,0,0,0,0,0
1.354999,-0.3847782,1,0,0,0,0,0,0,0,0,0,0,0,0,0,1,0,0,0,0,0,0.09558105,-0.8699951,-0.5032959,0,0,0,0,0,0
1.359999,-0.4253754,1,0,0,0,0,0,0,0,0,0,0,0,0,0,1,0,0,0,0,0,0.09814453,-0.8662109,-0.4958496,0,0,0,0,0,0
1.364999,-0.5149953,1,0,0,0,0,0,0,0,0,0,0,0,0,0,1,0,0,0,0,0,0.09765625,-0.855835,-0.5189209,0,0,0,0,0,0
1.369999,-0.5552751,0.9947014,0,0,0,0,0,0,0,0,0,0,0,0,0,1,0,0,0,0,0,0.08740234,-0.8447266,-0.4744873,0,0,0,0,0,0
1.374999,-0.6352481,0.9468793,0,0,0,0,0,0,0,0,0,0,0,0,0,1,0,0,0.04473316,-0.006497554,-0.0007497177,0.0456543,-0.8278809,-0.447876,0,0,0,0,0,0
1.379999,-0.6658976,0.9051422,0,0,0,0,0,0,0,0,0,0,0,0,0,1,0,0,0,0,0,0.05114746,-0.8533936,-0.4633789,0,0,0,0,0,0
1.384999,-0.6959809,0.8550623,0,0,0,0,0,0,0,0,0,0,0,0,0,1,0,0,0,0,0,0.0682373,-0.8786621,-0.4666748,0,0,0,0,0,0
1.389999,-0.717445,0.6939222,0,0,0,0,0,0,0,0,0,0,0,0,0,1,0,0,0.08257589,0.01407019,0.0246805,0.06384277,-0.9210205,-0.4997559,0,0,0,0,0,0
1.394999,-0.7182496,0.6017767,0,0,0,0,0,0,0,0,0,0,0,0,0,1,0,0,0,0,0,0.04528809,-0.9221191,-0.4915771,0,0,0,0,0,0
1.399999,-0.7174848,0.4949494,0,0,0,0,0,0,0,0,0,0,0,0,0,1,0,0,0,0,0,0.03088379,-0.9239502,-0.4686279,0,0,0,0,0,0
1.404999,-0.7079446,0.2809304,0,0,0,0,0,0,0,0,0,0,0,0,0,0,0,0,0,0,0,0.01416016,-0.9263916,-0.4606934,0,0,0,0,0,0
1.409999,-0.7094319,0.1671436,0,0,0,0,0,0,0,0,0,0,0,0,0,0,0,0,0,0,0,0.01208496,-0.9395752,-0.4650879,0,0,0,0,0,0
1.414999,-0.723371,-0.03338636,0,0,0,0,0,0,0,0,0,0,0,0,0,0,0,0,0.08446132,0.0189913,0.004248055,0.01257324,-0.9464111,-0.4239502,0,0,0,0,0,0
1.419999,-0.7262768,-0.1378064,0,0,0,0,0,0,0,0,0,0,0,0,0,0,0,0,0,0,0,0.02819824,-0.958374,-0.401001,0,0,0,0,0,0
1.424999,-0.7403071,-0.2292321,0,0,0,0,0,0,0,0,0,0,0,0,0,0,0,0,0,0,0,0.04248047,-0.987915,-0.4389648,0,0,0,0,0,0
1.429999,-0.7538083,-0.4094289,0,0,0,0,0,0,0,0,0,0,0,0,0,0,0,0,0,0,0,0.01306152,-0.8781738,-0.3466797,0,0,0,0,0,0
1.434999,-0.7619342,-0.5066669,0,0,0,0,0,0,0,0,0,0,0,0,0,0,0,0,0,0,0,0.009399414,-0.8643799,-0.3482666,0,0,0,0,0,0
1.439999,-0.7695076,-0.5976379,0,0,0,0,0,0,0,0,0,0,0,0,0,0,0,0,0,0,0,0.01391602,-0.8748779,-0.3477783,0,0,0,0,0,0
1.444999,-0.7821831,-0.7583603,0,0,0,0,0,0,0,0,0,0,0,0,0,0,0,0,0,0,0,0.05944824,-0.9093018,-0.3070068,0,0,0,0,0,0
1.449999,-0.7510855,-0.7987735,0,0,0,0,0,0,0,0,0,0,0,0,0,0,0,0,0,0,0,0.08032227,-1.022949,-0.2891846,0,0,0,0,0,0
1.454999,-0.7110435,-0.8302128,0,0,0,0,0,0,0,0,0,0,0,0,0,0,0,0,0,0,0,0.06201172,-0.9931641,-0.3023682,0,0,0,0,0,0
1.459999,-0.6556707,-0.8782014,0,0,0,0,0,0,0,0,0,0,0,0,0,0,0,0,0,0,0,0.0526123,-0.9853516,-0.3381348,0,0,0,0,0,0
1.464999,-0.62455,-0.9109678,0,0,0,0,0,0,0,0,0,0,0,0,0,0,0,0,0,0,0,0.05773926,-0.9949951,-0.37854,0,0,0,0,0,0
1.469999,-0.5602909,-0.9417656,0,0,0,0,0,0,0,0,0,0,0,0,0,0,0,0,-0.1052104,0.02199172,-0.01049605,0.07165527,-0.9848633,-0.4064941,0,0,0,0,0,0
1.474999,-0.5288838,-0.9663064,0,0,0,0,0,0,0,0,0,0,0,0,0,0,0,0,0,0,0,0.0682373,-0.9543457,-0.4005127,0,0,0,0,0,0
1.479999,-0.5047147,-0.9736622,0,0,0,0,0,0,0,0,0,0,0,0,0,1,0,0,0,0,0,0.06445313,-0.9263916,-0.4176025,0,0,0,0,0,0
1.484999,-0.4416777,-1,0,0,0,0,0,0,0,0,0,0,0,0,0,1,0,0,-0.09896139,0.01476347,-0.01061124,0.07824707,-0.8325195,-0.4307861,0,0,0,0,0,0
1.489999,-0.4091095,-1,0,0,0,0,0,0,0,0,0,0,0,0,0,1,0,0,0,0,0,0.09118652,-0.8282471,-0.4294434,0,0,0,0,0,0
1.494999,-0.3766855,-1,0,0,0,0,0,0,0,0,0,0,0,0,0,1,0,0,0,0,0,0.09057617,-0.8530273,-0.4525146,0,0,0,0,0,0
1.499999,-0.3122526,-1,0,0,0,0,0,0,0,0,0,0,0,0,0,1,0,0,0,0,0,0.08215332,-0.8702393,-0.4143066,0,0,0,0,0,0
1.504999,-0.2802319,-1,0,0,0,0,0,0,0,0,0,0,0,0,0,1,0,0,0,0,0,0.0892334,-0.8157959,-0.425293,0,0,0,0,0,0
1.509999,-0.2403741,-1,0,0,0,0,0,0,0,0,0,0,0,0,0,1,0,0,0,0,0,0.05773926,-0.8460693,-0.5163574,0,0,0,0,0,0
1.514999,-0.1769445,-1,0,0,0,0,0,0,0,0,0,0,0,0,0,1,0,0,0,0,0,0.1147461,-0.8896484,-0.5200195,0,0,0,0,0,0
1.519999,-0.1532514,-1,0,0,0,0,0,0,0,0,0,0,0,0,0,1,0,0,0,0,0,0.1196289,-0.8847656,-0.5483398,0,0,0,0,0,0
1.524999,-0.09812176,-1,0,0,0,0,0,0,0,0,0,0,0,0,0,1,0,0,-0.004383292,-0.02306996,-0.03022165,0.1105957,-0.8883057,-0.5379639,0,0,0,0,0,0
1.529999,-0.08240198,-1,0,0,0,0,0,0,0,0,0,0,0,0,0,1,0,0,0,0,0,0.1010742,-0.8903809,-0.5244141,0,0,0,0,0,0
1.534999,-0.05884144,-1,0,0,0,0,0,0,0,0,0,0,0,0,0,1,0,0,0,0,0,0.1027832,-0.9047852,-0.5224609,0,0,0,0,0,0
1.539999,-0.02745281,-1,0,0,0,0,0,0,0,0,0,0,0,0,0,1,0,0,0.009495651,-0.03473409,-0.0189913,0.1018066,-0.9013672,-0.5057373,0,0,0,0,0,0
1.544999,0.003921574,-1,0,0,0,0,0,0,0,0,0,0,0,0,0,1,0,0,0,0,0,0.1031494,-0.8723145,-0.5262451,0,0,0,0,0,0
1.549999,0.01176485,-1,0,0,0,0,0,0,0,0,0,0,0,0,0,1,0,0,0,0,0,0.09484863,-0.8597412,-0.5170898,0,0,0,0,0,0
1.554999,0.02745281,-1,0,0,0,0,0,0,0,0,0,0,0,0,0,1,0,0,0,0,0,0.0657959,-0.8128662,-0.4627686,0,0,0,0,0,0
1.559999,0.035298,-1,0,0,0,0,0,0,0,0,0,0,0,0,0,1,0,0,0,0,0,0.06323242,-0.7910156,-0.4771729,0,0,0,0,0,0
1.564999,0.035298,-1,0,0,0,0,0,0,0,0,0,0,0,0,0,1,0,0,0,0,0,0.0736084,-0.8001709,-0.4840088,0,0,0,0,0,0
1.569999,0.04314433,-1,0,0,0,0,0,0,0,0,0,0,0,0,0,1,0,0,0,0,0,0.09216309,-0.8612061,-0.4914551,0,0,0,0,0,0
1.574999,0.04314433,-1,0,0,0,0,0,0,0,0,0,0,0,0,0,1,0,0,0,0,0,0.09472656,-0.8925781,-0.4927979,0,0,0,0,0,0
1.579999,0.04314433,-1,0,0,0,0,0,0,0,0,0,0,0,0,0,0,0,0,0.1259398,-0.01776074,0.04013465,0.07727051,-0.9105225,-0.4638672,0,0,0,0,0,0
1.584999,0.04314433,-1,0,0,0,0,0,0,0,0,0,0,0,0,0,0,0,0,0,0,0,0.06958008,-0.9215088,-0.4545898,0,0,0,0,0,0
1.589999,0.04314433,-1,0,0,0,0,0,0,0,0,0,0,0,0,0,0,0,0,0,0,0,0.0682373,-0.9348145,-0.4472656,0,0,0,0,0,0
1.594999,0.04314433,-1,0,0,0,0,0,0,0,0,0,0,0,0,0,0,0,0,0.1131982,-0.009995421,0.05222608,0.05554199,-0.9462891,-0.3914795,0,0,0,0,0,0
1.599999,0.05099206,-1,0,0,0,0,0,0,0,0,0,0,0,0,0,0,0,0,0,0,0,0.04040527,-1.000732,-0.3865967,0,0,0,0,0,0
1.604999,0.05099206,-1,0,0,0,0,0,0,0,0,0,0,0,0,0,0,0,0,0,0,0,0.0579834,-0.982666,-0.413208,0,0,0,0,0,0
1.609999,0.05884144,-1,0,0,0,0,0,0,0,0,0,0,0,0,0,0,0,0,0.05247597,0.00674691,0.04348009,0.01574707,-0.9119873,-0.3452148,0,0,0,0,0,0
1.614999,0.05884144,-1,0,0,0,0,0,0,0,0,0,0,0,0,0,0,0,0,0,0,0,0.007202148,-0.9066162,-0.3411865,0,0,0,0,0,0
1.619999,0.06669273,-1,0,0,0,0,0,0,0,0,0,0,0,0,0,0,0,0,0,0,0,0.01098633,-0.9152832,-0.3569336,0,0,0,0,0,0
1.624999,0.06669273,-1,0,0,0,0,0,0,0,0,0,0,0,0,0,0,0,0,0.02523844,0.0277373,0.01799176,0.01318359,-0.9534912,-0.3865967,0,0,0,0,0,0
1.629999,0.07454614,-1,0,0,0,0,0,0,0,0,0,0,0,0,0,0,0,0,0,0,0,0.01098633,-0.9641113,-0.3946533,0,0,0,0,0,0
1.634999,0.07454614,-1,0,0,0,0,0,0,0,0,0,0,0,0,0,0,0,0,0,0,0,0.02001953,-0.965332,-0.3762207,0,0,0,0,0,0
1.639999,0.08240198,-1,0,0,0,0,0,0,0,0,0,0,0,0,0,0,0,0,0,0,0,0.0213623,-1.032837,-0.2893066,0,0,0,0,0,0
1.644999,0.09026043,-1,0,0,0,0,0,0,0,0,0,0,0,0,0,0,0,0,0,0,0,-0.01293945,-1.059204,-0.2943115,0,0,0,0,0,0
1.649999,0.09026043,-1,0,0,0,0,0,0,0,0,0,0,0,0,0,0,0,0,0,0,0,-0.01721191,-1.066162,-0.3349609,0,0,0,0,0,0
1.654999,0.09812176,-1,0,0,0,0,0,0,0,0,0,0,0,0,0,0,0,0,0,0,0,0.01745605,-1.076172,-0.355835,0,0,0,0,0,0
1.659999,0.1059862,-1,0,0,0,0,0,0,0,0,0,0,0,0,0,0,0,0,0,0,0,0.01757813,-1.059326,-0.368042,0,0,0,0,0,0
1.664999,0.1059862,-1,0,0,0,0,0,0,0,0,0,0,0,0,0,1,0,0,0,0,0,0.0144043,-1.05127,-0.3581543,0,0,0,0,0,0
1.669999,0.1217254,-1,0,0,0,0,0,0,0,0,0,0,0,0,0,1,0,0,0,0,0,0.02734375,-0.8967285,-0.4331055,0,0,0,0,0,0
1.674999,0.1217254,-1,0,0,0,0,0,0,0,0,0,0,0,0,0,1,0,0,0,0,0,0.04821777,-0.8474121,-0.4868164,0,0,0,0,0,0
1.679999,0.1217254,-1,0,0,0,0,0,0,0,0,0,0,0,0,0,1,0,0,0,0,0,0.06689453,-0.8244629,-0.5097656,0,0,0,0,0,0
1.684999,0.1296006,-1,0,0,0,0,0,0,0,0,0,0,0,0,0,1,0,0,0,0,0,0.0189209,-0.7414551,-0.4130859,0,0,0,0,0,0
1.689999,0.1296006,-1,0,0,0,0,0,0,0,0,0,0,0,0,0,1,0,0,0,0,0,0.01123047,-0.848877,-0.5010986,0,0,0,0,0,0
1.694999,0.1296006,-1,0,0,0,0,0,0,0,0,0,0,0,0,0,1,0,0,-0.05147642,-0.008745994,-0.0622215,0.1004639,-0.9005127,-0.515625,0,0,0,0,0,0
1.699999,0.1296006,-1,0,0,0,0,0,0,0,0,0,0,0,0,0,1,0,0,0,0,0,0.1062012,-0.8726807,-0.5556641,0,0,0,0,0,0
1.704999,0.1296006,-1,0,0,0,0,0,0,0,0,0,0,0,0,0,1,0,0,0,0,0,0.09387207,-0.8648682,-0.5531006,0,0,0,0,0,0
1.709999,0.1296006,-1,0,0,0,0,0,0,0,0,0,0,0,0,0,1,0,0,-0.01499313,-0.04223066,-0.04447963,0.08349609,-0.8621826,-0.5003662,0,0,0,0,0,0
1.714999,0.1296006,-1,0,0,0,0,0,0,0,0,0,0,0,0,0,1,0,0,0,0,0,0.09313965,-0.8696289,-0.5085449,0,0,0,0,0,0
1.719999,0.1217254,-1,0,0,0,0,0,0,0,0,0,0,0,0,0,1,0,0,0,0,0,0.1046143,-0.8764648,-0.5141602,0,0,0,0,0,0
1.724999,0.1059862,-1,0,0,0,0,0,0,0,0,0,0,0,0,0,1,0,0,0,0,0,0.09790039,-0.842041,-0.4779053,0,0,0,0,0,0
1.729999,0.09812176,-1,-0.001119261,0.006235885,0,0,0,0,0,0,0,0,0,0,0,1,0,0,0,0,0,0.09802246,-0.8438721,-0.4869385,0,0,0,0,0,0
1.734999,0.09812176,-1,-0.002595896,0.01520453,0,0,0,0,0,0,0,0,0,0,0,1,0,0,0,0,0,0.1060791,-0.8543701,-0.4904785,0,0,0,0,0,0
1.739999,0.08240198,-1,-0.003685909,0.01679136,0,0,0,0,0,0,0,0,0,0,0,1,0,0,0,0,0,0.1077881,-0.8620605,-0.4381104,0,0,0,0,0,0
1.744999,0.08240198,-1,-0.003685909,0.01679136,0,0,0,0,0,0,0,0,0,0,0,1,0,0,0,0,0,0.1160889,-0.8829346,-0.4387207,0,0,0,0,0,0
1.749999,0.07454614,-1,-0.005021143,0.01871517,0,0,0,0,0,0,0,0,0,0,0,1,0,0,0.03160027,-0.03136961,0.02006732,0.114624,-0.8873291,-0.40979,0,0,0,0,0,0
1.754999,0.06669273,-1,-0.005021143,0.01871517,0,0,0,0,0,0,0,0,0,0,0,1,0,0,0,0,0,0.1109619,-0.8828125,-0.395752,0,0,0,0,0,0
1.759999,0.06669273,-1,-0.005021143,0.01871517,0,0,0,0,0,0,0,0,0,0,0,1,0,0,0,0,0,0.1123047,-0.894165,-0.4107666,0,0,0,0,0,0
1.764999,0.05884144,-1,-0.006639781,0.02094085,0,0,0,0,0,0,0,0,0,0,0,1,0,0,0.02373913,-0.01624256,0.03473409,0.09680176,-0.8979492,-0.4208984,0,0,0,0,0,0
1.769999,0.05884144,-1,-0.006639781,0.02094085,0,0,0,0,0,0,0,0,0,0,0,1,0,0,0,0,0,0.0880127,-0.8903809,-0.4128418,0,0,0,0,0,0
1.774999,0.05884144,-1,-0.008572117,0.02343045,0,0,0,0,0,0,0,0,0,0,0,1,0,0,0,0,0,0.08398438,-0.8997803,-0.4173584,0,0,0,0,0,0
1.779999,0.05099206,-1,-0.001330675,0.002739625,0,0,0,0,0,0,0,0,0,0,0,1,0,0,0,0,0,0.07556152,-0.916626,-0.4086914,0,0,0,0,0,0
1.784999,0.05099206,-1,0,0,0,0,0,0,0,0,0,0,0,0,0,1,0,0,0,0,0,0.07275391,-0.9196777,-0.4057617,0,0,0,0,0,0
1.789999,0.04314433,-1,0,0,0,0,0,0,0,0,0,0,0,0,0,1,0,0,0,0,0,0.06945801,-0.9208984,-0.4169922,0,0,0,0,0,0
1.794999,0.035298,-1,0,0,0,0,0,0,0,0,0,0,0,0,0,1,0,0,0,0,0,0.05297852,-0.9259033,-0.4289551,0,0,0,0,0,0
1.799999,0.02745281,-1,0,0,0,0,0,0,0,0,0,0,0,0,0,1,0,0,0,0,0,0.04321289,-0.9328613,-0.4241943,0,0,0,0,0,0
1.804999,0.02745281,-1,0,0,0,0,0,0,0,0,0,0,0,0,0,1,0,0,0,0,0,0.04284668,-0.9378662,-0.4304199,0,0,0,0,0,0
1.809999,0.003921574,-1,0,0,0,0,0,0,0,0,0,0,0,0,0,1,0,0,0,0,0,0.03991699,-0.9412842,-0.4447021,0,0,0,0,0,0
1.814999,-0.01176485,-1,0,0,0,0,0,0,0,0,0,0,0,0,0,1,0,0,0,0,0,0.04174805,-0.9373779,-0.4377441,0,0,0,0,0,0
1.819999,-0.035298,-1,0,0,0,0,0,0,0,0,0,0,0,0,0,1,0,0,0.01174462,-0.00449794,0.02448878,0.03894043,-0.9432373,-0.4367676,0,0,0,0,0,0
1.824998,-0.05099206,-1,0,0,0,0,0,0,0,0,0,0,0,0,0,1,0,0,0,0,0,0.03771973,-0.9403076,-0.4327393,0,0,0,0,0,0
1.829998,-0.05884144,-1,0,0,0,0,0,0,0,0,0,0,0,0,0,1,0,0,0,0,0,0.04064941,-0.9382324,-0.4350586,0,0,0,0,0,0
1.834998,-0.08240198,-1,0,0,0,0,0,0,0,0,0,0,0,0,0,1,0,0,-0.0002306996,-0.01522617,0.008997284,0.0333252,-0.9356689,-0.4393311,0,0,0,0,0,0
1.839998,-0.09026043,-1,0,0,0,0,0,0,0,0,0,0,0,0,0,1,0,0,0,0,0,0.02905273,-0.9251709,-0.4437256,0,0,0,0,0,0
1.844998,-0.09812176,-1,0,0,0,0,0,0,0,0,0,0,0,0,0,1,0,0,0,0,0,0.03381348,-0.9151611,-0.4459229,0,0,0,0,0,0
1.849998,-0.113854,-1,0,0,0,0,0,0,0,0,0,0,0,0,0,1,0,0,0,0,0,0.04187012,-0.9143066,-0.4538574,0,0,0,0,0,0
1.854998,-0.1217254,-1,0,0,0,0,0,0,0,0,0,0,0,0,0,1,0,0,0,0,0,0.05065918,-0.9129639,-0.4567871,0,0,0,0,0,0
1.859998,-0.1296006,-1,0,0,0,0,0,0,0,0,0,0,0,0,0,1,0,0,-0.01149474,-0.02348924,0,0.05895996,-0.9031982,-0.4506836,0,0,0,0,0,0
1.864998,-0.1374799,-1,0,0,0,0,0,0,0,0,0,0,0,0,0,1,0,0,0,0,0,0.06164551,-0.897583,-0.4487305,0,0,0,0,0,0
1.869998,-0.1374799,-1,0,0,0,0,0,0,0,0,0,0,0,0,0,1,0,0,0,0,0,0.06091309,-0.8928223,-0.4493408,0,0,0,0,0,0
1.874998,-0.1374799,-1,0,0,0,0,0,0,0,0,0,0,0,0,0,1,0,0,-0.009457015,-0.01706876,-0.0002306589,0.05895996,-0.890625,-0.4415283,0,0,0,0,0,0
1.879998,-0.1374799,-1,0,0,0,0,0,0,0,0,0,0,0,0,0,1,0,0,0,0,0,0.05712891,-0.895874,-0.4421387,0,0,0,0,0,0
1.884998,-0.1453634,-1,0,0,0,0,0,0,0,0,0,0,0,0,0,1,0,0,0,0,0,0.05908203,-0.8978271,-0.4434814,0,0,0,0,0,0
1.889998,-0.1453634,-1,0,0,0,0,0,0,0,0,0,0,0,0,0,1,0,0,-0.00224897,-0.01099496,0.00224897,0.05749512,-0.8907471,-0.4365234,0,0,0,0,0,0
1.894998,-0.1453634,-1,0,0,0,0,0,0,0,0,0,0,0,0,0,1,0,0,0,0,0,0.05273438,-0.8879395,-0.4366455,0,0,0,0,0,0
1.899998,-0.1453634,-1,-0.01036987,-0.02128552,0,0,0,0,0,0,0,0,0,0,0,1,0,0,0.005247597,-0.004747826,0.001249428,0.0480957,-0.8845215,-0.4334717,0,0,0,0,0,0
1.904998,-0.1453634,-1,-0.01901647,-0.04503901,0,0,0,0,0,0,0,0,0,0,0,1,0,0,0,0,0,0.04943848,-0.8824463,-0.4343262,0,0,0,0,0,0
1.909998,-0.1453634,-1,-0.02605112,-0.06992668,0,0,0,0,0,0,0,0,0,0,0,1,0,0,0,0,0,0.05126953,-0.8829346,-0.4383545,0,0,0,0,0,0
1.914998,-0.1453634,-1,-0.03517912,-0.1129435,0,0,0,0,0,0,0,0,0,0,0,1,0,0,0.0168381,0,-0.0002306589,0.04821777,-0.8826904,-0.4350586,0,0,0,0,0,0
1.919998,-0.1374799,-1,-0.03814678,-0.1305021,0,0,0,0,0,0,0,0,0,0,0,1,0,0,0,0,0,0.04663086,-0.8898926,-0.4343262,0,0,0,0,0,0
1.924998,-0.1374799,-1,-0.04203929,-0.1570942,0,0,0,0,0,0,0,0,0,0,0,1,0,0,0,0,0,0.04956055,-0.8964844,-0.43396,0,0,0,0,0,0
1.929998,-0.1296006,-1,-0.04735812,-0.2018951,0,0,0,0,0,0,0,0,0,0,0,1,0,0,0,0,0,0.0534668,-0.9057617,-0.4383545,0,0,0,0,0,0
1.934998,-0.1296006,-1,-0.04916225,-0.2199364,0,0,0,0,0,0,0,0,0,0,0,1,0,0,0,0,0,0.0526123,-0.9101563,-0.4343262,0,0,0,0,0,0
1.939998,-0.1217254,-1,-0.05304987,-0.2652493,0,0,0,0,0,0,0,0,0,0,0,1,0,0,0.03073592,0.002498855,-0.001749199,0.05432129,-0.9213867,-0.4300537,0,0,0,0,0,0
1.944998,-0.1217254,-1,-0.05503342,-0.2925461,0,0,0,0,0,0,0,0,0,0,0,1,0,0,0,0,0,0.05541992,-0.9321289,-0.4287109,0,0,0,0,0,0
1.949998,-0.113854,-1,-0.05564588,-0.3016592,0,0,0,0,0,0,0,0,0,0,0,1,0,0,0,0,0,0.0480957,-0.9307861,-0.4306641,0,0,0,0,0,0
1.954998,-0.113854,-1,-0.05171585,-0.3376741,0,0,0,0,0,0,0,0,0,0,0,1,0,0,0.02498856,0.00224897,0.0007496566,0.04382324,-0.9370117,-0.4320068,0,0,0,0,0,0
1.959998,-0.113854,-1,-0.04637959,-0.3555769,0,0,0,0,0,0,0,0,0,0,0,1,0,0,0,0,0,0.04577637,-0.9417725,-0.4328613,0,0,0,0,0,0
1.964998,-0.113854,-1,-0.02821398,-0.3730516,0,0,0,0,0,0,0,0,0,0,0,1,0,0,0.02224163,-0.0002499059,0.005747836,0.03796387,-0.942749,-0.4353027,0,0,0,0,0,0
1.969998,-0.113854,-1,-0.02210327,-0.3820708,0,0,0,0,0,0,0,0,0,0,0,1,0,0,0,0,0,0.03820801,-0.9400635,-0.439209,0,0,0,0,0,0
1.974998,-0.113854,-1,-0.009537949,-0.3910559,0,0,0,0,0,0,0,0,0,0,0,1,0,0,0,0,0,0.03735352,-0.9289551,-0.4443359,0,0,0,0,0,0
1.979998,-0.113854,-1,0.009606755,-0.4002815,0,0,0,0,0,0,0,0,0,0,0,1,0,0,0,0,0,0.03344727,-0.9168701,-0.4503174,0,0,0,0,0,0
1.984998,-0.113854,-1,0.01612577,-0.4095945,0,0,0,0,0,0,0,0,0,0,0,1,0,0,0,0,0,0.03381348,-0.918335,-0.4523926,0,0,0,0,0,0
1.989998,-0.113854,-1,0.02904799,-0.4098994,0,0,0,0,0,0,0,0,0,0,0,1,0,0,0,0,0,0.03076172,-0.9165039,-0.4511719,0,0,0,0,0,0
1.994998,-0.1217254,-1,0.04200691,-0.4103752,0,0,0,0,0,0,0,0,0,0,0,1,0,0,0,0,0,0.03930664,-0.9213867,-0.4468994,0,0,0,0,0,0
1.999998,-0.1217254,-1,0.05501816,-0.411018,0,0,0,0,0,0,0,0,0,0,0,1,0,0,0,0,0,0.04052734,-0.9272461,-0.4438477,0,0,0,0,0,0
2.004998,-0.1296006,-1,0.06809656,-0.4118221,0,0,0,0,0,0,0,0,0,0,0,1,0,0,0.01599398,-0.007247271,0.005997742,0.04504395,-0.9316406,-0.4387207,0,0,0,0,0,0
2.009999,-0.1296006,-1,0.07466535,-0.4122826,0,0,0,0,0,0,0,0,0,0,0,1,0,0,0,0,0,0.04492188,-0.9388428,-0.4342041,0,0,0,0,0,0
2.014999,-0.1296006,-1,0.08787026,-0.4133157,0,0,0,0,0,0,0,0,0,0,0,1,0,0,0,0,0,0.04577637,-0.9355469,-0.4317627,0,0,0,0,0,0
2.019999,-0.1296006,-1,0.101175,-0.4144913,0,0,0,0,0,0,0,0,0,0,0,1,0,0,0.00299883,-0.008765811,0.004152226,0.04418945,-0.928833,-0.4338379,0,0,0,0,0,0
2.024999,-0.1296006,-1,0.1078684,-0.4151297,0,0,0,0,0,0,0,0,0,0,0,1,0,0,0,0,0,0.04528809,-0.9295654,-0.4309082,0,0,0,0,0,0
2.029999,-0.1296006,-1,0.1145906,-0.4158003,0,0,0,0,0,0,0,0,0,0,0,1,0,0,0,0,0,0.04931641,-0.9296875,-0.4291992,0,0,0,0,0,0
2.034999,-0.1296006,-1,0.1349424,-0.4179924,0,0,0,0,0,0,0,0,0,0,0,1,0,0,-0.006497024,-0.008246223,0.0004997711,0.04663086,-0.9320068,-0.4202881,0,0,0,0,0,0
2.039999,-0.1296006,-1,0.1417913,-0.4187789,0,0,0,0,0,0,0,0,0,0,0,1,0,0,0,0,0,0.04431152,-0.9348145,-0.4204102,0,0,0,0,0,0
2.044999,-0.1296006,-1,0.1417913,-0.4187789,0,0,0,0,0,0,0,0,0,0,0,1,0,0,0,0,0,0.04492188,-0.9356689,-0.416748,0,0,0,0,0,0
2.049999,-0.1374799,-1,0.1555914,-0.4204277,0,0,0,0,0,0,0,0,0,0,0,1,0,0,0,0,0,0.03991699,-0.9421387,-0.4188232,0,0,0,0,0,0
2.055,-0.1453634,-1,0.1634038,-0.4301854,0,0,0,0,0,0,0,0,0,0,0,1,0,0,0,0,0,0.0369873,-0.9505615,-0.4194336,0,0,0,0,0,0
2.06,-0.1532514,-1,0.1634038,-0.4301854,0,0,0,0,0,0,0,0,0,0,0,1,0,0,0,0,0,0.03369141,-0.9511719,-0.4165039,0,0,0,0,0,0
2.065,-0.1769445,-1,0.1704131,-0.431045,0,0,0,0,0,0,0,0,0,0,0,1,0,0,0,0,0,0.04162598,-0.9464111,-0.4212646,0,0,0,0,0,0
2.07,-0.1848525,-1,0.1774575,-0.4319249,0,0,0,0,0,0,0,0,0,0,0,1,0,0,0,0,0,0.04003906,-0.942749,-0.4179688,0,0,0,0,0,0
2.075,-0.2244794,-1,0.1774575,-0.4319249,0,0,0,0,0,0,0,0,0,0,0,1,0,0,-0.0154929,-0.001249428,-0.01449336,0.04052734,-0.9278564,-0.4285889,0,0,0,0,0,0
2.08,-0.2324234,-1,0.1774575,-0.4319249,0,0,0,0,0,0,0,0,0,0,0,1,0,0,-0.01424348,-0.0007496566,-0.01399359,0.0435791,-0.9176025,-0.4372559,0,0,0,0,0,0
2.085,-0.2962267,-1,0.1774575,-0.4319249,0,0,0,0,0,0,0,0,0,0,0,1,0,0,0,0,0,0.04650879,-0.8948975,-0.4433594,0,0,0,0,0,0
2.09,-0.3202776,-1,0.1774575,-0.4319249,0,0,0,0,0,0,0,0,0,0,0,1,0,0,0,0,0,0.04907227,-0.9025879,-0.4365234,0,0,0,0,0,0
2.095001,-0.3766855,-1,0.1774575,-0.4319249,0,0,0,0,0,0,0,0,0,0,0,1,0,0,-0.00549793,0.002748965,-0.0127452,0.05285645,-0.8746338,-0.4361572,0,0,0,0,0,0
2.100001,-0.4172379,-1,0.1774575,-0.4319249,0,0,0,0,0,0,0,0,0,0,0,1,0,0,0,0,0,0.06152344,-0.8751221,-0.4295654,0,0,0,0,0,0
2.105001,-0.4580168,-1,0.1704131,-0.431045,0,0,0,0,0,0,0,0,0,0,0,1,0,0,0,0,0,0.06066895,-0.8713379,-0.4359131,0,0,0,0,0,0
2.110001,-0.5365938,-0.9579193,0.1625439,-0.4212874,0,0,0,0,0,0,0,0,0,0,0,1,0,0,0,0,0,0.0612793,-0.8695068,-0.4373779,0,0,0,0,0,0
2.115001,-0.5840389,-0.9257216,0.161662,-0.4124031,0,0,0,0,0,0,0,0,0,0,0,1,0,0,0,0,0,0.05810547,-0.8728027,-0.4307861,0,0,0,0,0,0
2.120001,-0.6706443,-0.8531865,0.1460991,-0.3928443,0,0,0,0,0,0,0,0,0,0,0,1,0,0,0.006247139,-0.005747368,-0.007246681,0.06872559,-0.8935547,-0.4138184,0,0,0,0,0,0
2.125001,-0.7104076,-0.8215328,0.139293,-0.391964,0,0,0,0,0,0,0,0,0,0,0,1,0,0,0,0,0,0.06591797,-0.9029541,-0.4094238,0,0,0,0,0,0
2.130001,-0.7656432,-0.7656432,0.1307975,-0.3732513,0,0,0,0,0,0,0,0,0,0,0,1,0,0,-0.006497024,-0.008995879,-0.005247597,0.05175781,-0.9129639,-0.4222412,0,0,0,0,0,0
2.135001,-0.7815388,-0.7498012,0.1298961,-0.3643427,0,0,0,0,0,0,0,0,0,0,0,1,0,0,0,0,0,0.03820801,-0.909668,-0.4262695,0,0,0,0,0,0
2.140002,-0.7974913,-0.7340094,0.1223575,-0.3545231,0,0,0,0,0,0,0,0,0,0,0,1,0,0,0,0,0,0.02905273,-0.9035645,-0.4321289,0,0,0,0,0,0
2.145002,-0.8054897,-0.7261311,0.1075246,-0.3348624,0,0,0,0,0,0,0,0,0,0,0,1,0,0,0,0,0,0.02319336,-0.885498,-0.447876,0,0,0,0,0,0
2.150002,-0.8135034,-0.718264,0.1002409,-0.3250235,0,0,0,0,0,0,0,0,0,0,0,1,0,0,0,0,0,0.02783203,-0.8808594,-0.4498291,0,0,0,0,0,0
2.155002,-0.8295782,-0.7025614,0.08596831,-0.3053357,0,0,0,0,0,0,0,0,0,0,0,1,0,0,-0.006497024,-0.007246681,-0.009745537,0.03625488,-0.8988037,-0.4375,0,0,0,0,0,0
2.160002,-0.8295782,-0.7025614,0.08509273,-0.2963575,0,0,0,0,0,0,0,0,0,0,0,1,0,0,0,0,0,0.03125,-0.9024658,-0.4377441,0,0,0,0,0,0
2.165002,-0.8295782,-0.7025614,0.07813499,-0.286495,0,0,0,0,0,0,0,0,0,0,0,1,0,0,0,0,0,0.03295898,-0.9141846,-0.4283447,0,0,0,0,0,0
2.170002,-0.8295782,-0.7025614,0.07042968,-0.2676328,0,0,0,0,0,0,0,0,0,0,0,1,0,0,0,0,0,0.03491211,-0.9295654,-0.4248047,0,0,0,0,0,0
2.175002,-0.8295782,-0.7025614,0.06374619,-0.2577564,0,0,0,0,0,0,0,0,0,0,0,1,0,0,0,0,0,0.03845215,-0.9376221,-0.4210205,0,0,0,0,0,0
2.180002,-0.8295782,-0.7025614,0.06195885,-0.2397538,0,0,0,0,0,0,0,0,0,0,0,1,0,0,-0.006996796,-0.005247597,-0.02174004,0.04333496,-0.9318848,-0.4190674,0,0,0,0,0,0
2.185003,-0.8215328,-0.7104076,0.05547866,-0.2298402,0,0,0,0,0,0,0,0,0,0,0,1,0,0,0,0,0,0.05187988,-0.9334717,-0.416626,0,0,0,0,0,0
2.190003,-0.8054897,-0.7261311,0.05455982,-0.2208373,0,0,0,0,0,0,0,0,0,0,0,1,0,0,0,0,0,0.05175781,-0.9324951,-0.4163818,0,0,0,0,0,0
2.195003,-0.7735841,-0.7577157,0.05259838,-0.2028794,0,0,0,0,0,0,0,0,0,0,0,1,0,0,-0.01649379,-0.001249529,-0.01549417,0.05053711,-0.9228516,-0.4178467,0,0,0,0,0,0
2.200003,-0.766288,-0.7742289,0.05155031,-0.1939274,0,0,0,0,0,0,0,0,0,0,0,1,0,0,0,0,0,0.05126953,-0.921875,-0.4229736,0,0,0,0,0,0
2.205003,-0.7498012,-0.7815388,0.05045334,-0.1849956,0,0,0,0,0,0,0,0,0,0,0,1,0,0,0,0,0,0.05944824,-0.9245605,-0.4268799,0,0,0,0,0,0
2.210003,-0.718264,-0.8135034,0.04930407,-0.1760859,0,0,0,0,0,0,0,0,0,0,0,1,0,0,0,0,0,0.05444336,-0.9263916,-0.4267578,0,0,0,0,0,0
2.215003,-0.7025614,-0.8295782,0.0432088,-0.1660127,0,0,0,0,0,0,0,0,0,0,0,1,0,0,0,0,0,0.05053711,-0.9298096,-0.4250488,0,0,0,0,0,0
2.220003,-0.6953552,-0.8463467,0.04683373,-0.1583426,0,0,0,0,0,0,0,0,0,0,0,1,0,0,0,0,0,0.04760742,-0.9313965,-0.4284668,0,0,0,0,0,0
2.225003,-0.6628458,-0.8613026,0.03951317,-0.1393359,0,0,0,0,0,0,0,0,0,0,0,1,0,0,0,0,0,0.05041504,-0.9172363,-0.430542,0,0,0,0,0,0
2.230004,-0.6472705,-0.8775876,0.03814678,-0.1305021,0,0,0,0,0,0,0,0,0,0,0,1,0,0,0,0,0,0.0513916,-0.9116211,-0.4361572,0,0,0,0,0,0
2.235004,-0.6078463,-0.9097829,0.03670416,-0.1217032,0,0,0,0,0,0,0,0,0,0,0,1,0,0,-0.02398901,0.002748741,-0.007996337,0.04602051,-0.9003906,-0.4472656,0,0,0,0,0,0
2.240004,-0.5923551,-0.9263003,0.03517912,-0.1129435,0,0,0,0,0,0,0,0,0,0,0,1,0,0,0,0,0,0.04699707,-0.8995361,-0.446167,0,0,0,0,0,0
2.245004,-0.5680113,-0.933445,0.03356482,-0.1042276,0,0,0,0,0,0,0,0,0,0,0,1,0,0,0,0,0,0.04541016,-0.9012451,-0.4511719,0,0,0,0,0,0
2.250004,-0.5201051,-0.9568346,0.03393848,-0.08888649,0,0,0,0,0,0,0,0,0,0,0,1,0,0,-0.02074219,0.00674746,-0.01224539,0.05175781,-0.9047852,-0.4434814,0,0,0,0,0,0
2.255004,-0.5129389,-0.9741862,0.03188033,-0.08045989,0,0,0,0,0,0,0,0,0,0,0,1,0,0,0,0,0,0.06164551,-0.9108887,-0.4467773,0,0,0,0,0,0
2.260004,-0.4882966,-0.9726233,0.03188033,-0.08045989,0,0,0,0,0,0,0,0,0,0,0,1,0,0,0,0,0,0.06750488,-0.9174805,-0.4477539,0,0,0,0,0,0
2.265004,-0.4647444,-0.9890714,0.02737064,-0.06386483,0,0,0,0,0,0,0,0,0,0,0,1,0,0,0,0,0,0.07080078,-0.9283447,-0.4475098,0,0,0,0,0,0
2.270005,-0.448894,-0.9971008,0.02489639,-0.05572049,0,0,0,0,0,0,0,0,0,0,0,1,0,0,0,0,0,0.07128906,-0.9365234,-0.4431152,0,0,0,0,0,0
2.275005,-0.4253754,-1,0.02579932,-0.05047693,0,0,0,0,0,0,0,0,0,0,0,1,0,0,-0.0189913,0.006247139,-0.01124485,0.06738281,-0.9368896,-0.4458008,0,0,0,0,0,0
2.280005,-0.4172379,-1,0.02288029,-0.04277619,0,0,0,0,0,0,0,0,0,0,0,1,0,0,0,0,0,0.07019043,-0.9367676,-0.4501953,0,0,0,0,0,0
2.285005,-0.4091095,-1,0.01977463,-0.03525043,0,0,0,0,0,0,0,0,0,0,0,1,0,0,0,0,0,0.06628418,-0.9364014,-0.4505615,0,0,0,0,0,0
2.290005,-0.4091095,-1,0.01646862,-0.02792504,0,0,0,0,0,0,0,0,0,0,0,1,0,0,0,0,0,0.06860352,-0.9368896,-0.4445801,0,0,0,0,0,0
2.295005,-0.4091095,-1,0.01294819,-0.02082969,0,0,0,0,0,0,0,0,0,0,0,1,0,0,0,0,0,0.06921387,-0.9348145,-0.4486084,0,0,0,0,0,0
2.300005,-0.4091095,-1,0.009199293,-0.01399892,0,0,0,0,0,0,0,0,0,0,0,1,0,0,0,0,0,0.07189941,-0.9273682,-0.4476318,0,0,0,0,0,0
2.305005,-0.4091095,-1,0.0009635704,-0.001298725,0,0,0,0,0,0,0,0,0,0,0,1,0,0,0,0,0,0.07055664,-0.9155273,-0.4521484,0,0,0,0,0,0
2.310005,-0.4091095,-1,0.0009635704,-0.001298725,0,0,0,0,0,0,0,0,0,0,0,1,0,0,0,0,0,0.06677246,-0.9080811,-0.4519043,0,0,0,0,0,0
2.315006,-0.4172379,-1,0,0,0,0,0,0,0,0,0,0,0,0,0,1,0,0,-0.01776387,0.0009227984,0.004613991,0.07092285,-0.8999023,-0.4592285,0,0,0,0,0,0
2.320006,-0.4253754,-1,0,0,0,0,0,0,0,0,0,0,0,0,0,1,0,0,0,0,0,0.07226563,-0.9006348,-0.4559326,0,0,0,0,0,0
2.325006,-0.433522,-1,0,0,0,0,0,0,0,0,0,0,0,0,0,1,0,0,0,0,0,0.06396484,-0.8946533,-0.4525146,0,0,0,0,0,0
2.330006,-0.4580168,-1,0,0,0,0,0,0,0,0,0,0,0,0,0,1,0,0,-0.01424464,0.003248777,0.008496801,0.06713867,-0.8815918,-0.4522705,0,0,0,0,0,0
2.335006,-0.4662001,-1,0,0,0,0,0,0,0,0,0,0,0,0,0,1,0,0,0,0,0,0.06335449,-0.8813477,-0.447998,0,0,0,0,0,0
2.340006,-0.4662001,-1,0,0,0,0,0,0,0,0,0,0,0,0,0,1,0,0,0,0,0,0.05517578,-0.883667,-0.4448242,0,0,0,0,0,0
2.345006,-0.4662001,-1,0,0,0,0,0,0,0,0,0,0,0,0,0,1,0,0,-0.0177623,-0.0002306792,0.00899649,0.03601074,-0.8907471,-0.4415283,0,0,0,0,0,0
2.350006,-0.4662001,-1,0,0,0,0,0,0,0,0,0,0,0,0,0,1,0,0,0,0,0,0.03198242,-0.883667,-0.4448242,0,0,0,0,0,0
2.355006,-0.4662001,-1,0,0,0,0,0,0,0,0,0,0,0,0,0,1,0,0,0,0,0,0.03723145,-0.8720703,-0.4500732,0,0,0,0,0,0
2.360007,-0.4416777,-1,0,0,0,0,0,0,0,0,0,0,0,0,0,1,0,0,0,0,0,0.04162598,-0.8746338,-0.442749,0,0,0,0,0,0
2.365007,-0.4172379,-1,0,0,0,0,0,0,0,0,0,0,0,0,0,1,0,0,0,0,0,0.03857422,-0.8751221,-0.4368896,0,0,0,0,0,0
2.370007,-0.3928797,-1,0,0,0,0,0,0,0,0,0,0,0,0,0,1,0,0,0,0,0,0.04064941,-0.8806152,-0.4349365,0,0,0,0,0,0
2.375007,-0.3444016,-1,0,0,0,0,0,0,0,0,0,0,0,0,0,1,0,0,0,0,0,0.04382324,-0.8985596,-0.4337158,0,0,0,0,0,0
2.380007,-0.3202776,-1,0,0,0,0,0,0,0,0,0,0,0,0,0,1,0,0,0,0,0,0.04467773,-0.9063721,-0.4342041,0,0,0,0,0,0
2.385007,-0.2722459,-1,0,0,0,0,0,0,0,0,0,0,0,0,0,1,0,0,-0.02624012,0.01224539,-0.02074219,0.05566406,-0.9180908,-0.4313965,0,0,0,0,0,0
2.390007,-0.2403741,-1,0,0,0,0,0,0,0,0,0,0,0,0,0,1,0,0,0,0,0,0.05957031,-0.9152832,-0.4274902,0,0,0,0,0,0
2.395007,-0.2244794,-1,0,0,0,0,0,0,0,0,0,0,0,0,0,1,0,0,0,0,0,0.06140137,-0.9204102,-0.4284668,0,0,0,0,0,0
2.400007,-0.1690417,-1,0,0,0,0,0,0,0,0,0,0,0,0,0,1,0,0,-0.02623798,0.01024531,-0.0224897,0.06542969,-0.9359131,-0.4315186,0,0,0,0,0,0
2.405008,-0.1453634,-1,0,0,0,0,0,0,0,0,0,0,0,0,0,1,0,0,0,0,0,0.07019043,-0.9468994,-0.4343262,0,0,0,0,0,0
2.410008,-0.1217254,-1,0,0,0,0,0,0,0,0,0,0,0,0,0,1,0,0,0,0,0,0.07128906,-0.9489746,-0.4348145,0,0,0,0,0,0
2.415008,-0.09026043,-1,0,0,0,0,0,0,0,0,0,0,0,0,0,1,0,0,-0.03298758,0.007497177,-0.021242,0.07397461,-0.9493408,-0.4422607,0,0,0,0,0,0
2.420008,-0.07454614,-1,0,0,0,0,0,0,0,0,0,0,0,0,0,1,0,0,0,0,0,0.0715332,-0.9508057,-0.4433594,0,0,0,0,0,0
2.425008,-0.05099206,-1,0,0,0,0,0,0,0,0,0,0,0,0,0,1,0,0,-0.04123111,0.002748741,-0.02223982,0.06872559,-0.9477539,-0.4438477,0,0,0,0,0,0
2.430008,-0.04314433,-1,0,0,0,0,0,0,0,0,0,0,0,0,0,1,0,0,0,0,0,0.07470703,-0.9367676,-0.4508057,0,0,0,0,0,0
2.435008,-0.04314433,-1,0,0,0,0,0,0,0,0,0,0,0,0,0,1,0,0,0,0,0,0.07531738,-0.9285889,-0.4550781,0,0,0,0,0,0
2.440008,-0.04314433,-1,0,0,0,0,0,0,0,0,0,0,0,0,0,1,0,0,-0.04359838,-0.0004613585,-0.01730094,0.08459473,-0.9273682,-0.4536133,0,0,0,0,0,0
2.445009,-0.04314433,-1,0,0,0,0,0,0,0,0,0,0,0,0,0,1,0,0,0,0,0,0.08862305,-0.9261475,-0.4536133,0,0,0,0,0,0
2.450009,-0.04314433,-1,0,0,0,0,0,0,0,0,0,0,0,0,0,1,0,0,0,0,0,0.08654785,-0.9127197,-0.4632568,0,0,0,0,0,0
2.455009,-0.05884144,-1,0,0,0,0,0,0,0,0,0,0,0,0,0,1,0,0,-0.04897757,0.003998169,-0.01149474,0.09106445,-0.8858643,-0.4779053,0,0,0,0,0,0
2.460009,-0.07454614,-1,0,0,0,0,0,0,0,0,0,0,0,0,0,1,0,0,0,0,0,0.09570313,-0.8795166,-0.4820557,0,0,0,0,0,0
2.465009,-0.09026043,-1,0,0,0,0,0,0,0,0,0,0,0,0,0,1,0,0,0,0,0,0.09106445,-0.8724365,-0.4794922,0,0,0,0,0,0
2.470009,-0.1217254,-1,0,0,0,0,0,0,0,0,0,0,0,0,0,1,0,0,0,0,0,0.09277344,-0.8618164,-0.4760742,0,0,0,0,0,0
2.475009,-0.1453634,-1,0,0,0,0,0,0,0,0,0,0,0,0,0,1,0,0,0,0,0,0.09216309,-0.8575439,-0.4779053,0,0,0,0,0,0
2.480009,-0.1848525,-1,0,0,0,0,0,0,0,0,0,0,0,0,0,1,0,0,-0.004843837,0.005074495,0.002306589,0.08215332,-0.8575439,-0.4727783,0,0,0,0,0,0
2.485009,-0.2006854,-1,0,0,0,0,0,0,0,0,0,0,0,0,0,1,0,0,0,0,0,0.07556152,-0.8553467,-0.4718018,0,0,0,0,0,0
2.49001,-0.2244794,-1,0,0,0,0,0,0,0,0,0,0,0,0,0,1,0,0,0,0,0,0.07165527,-0.8499756,-0.4698486,0,0,0,0,0,0
2.49501,-0.2722459,-1,0,0,0,0,0,0,0,0,0,0,0,0,0,1,0,0,0,0,0,0.07116699,-0.8430176,-0.4803467,0,0,0,0,0,0
2.50001,-0.2962267,-1,0,0,0,0,0,0,0,0,0,0,0,0,0,1,0,0,0,0,0,0.07019043,-0.8395996,-0.4827881,0,0,0,0,0,0
2.50501,-0.336352,-1,0,0,0,0,0,0,0,0,0,0,0,0,0,1,0,0,0.02373913,0.0007496566,0.003748283,0.06677246,-0.8647461,-0.4677734,0,0,0,0,0,0
2.51001,-0.3444016,-1,0,0,0,0,0,0,0,0,0,0,0,0,0,1,0,0,0,0,0,0.06335449,-0.8775635,-0.4558105,0,0,0,0,0,0
2.51501,-0.3605264,-1,0,0,0,0,0,0,0,0,0,0,0,0,0,1,0,0,0,0,0,0.05529785,-0.8909912,-0.453125,0,0,0,0,0,0
2.52001,-0.3686016,-1,0,0,0,0,0,0,0,0,0,0,0,0,0,1,0,0,0.008496109,-0.005497482,-0.002498855,0.06616211,-0.8803711,-0.4761963,0,0,0,0,0,0
2.52501,-0.3766855,-1,0,0,0,0,0,0,0,0,0,0,0,0,0,1,0,0,0,0,0,0.07434082,-0.8754883,-0.4874268,0,0,0,0,0,0
2.53001,-0.3847782,-1,0,0,0,0,0,0,0,0,0,0,0,0,0,1,0,0,0,0,0,0.07763672,-0.869873,-0.501709,0,0,0,0,0,0
2.535011,-0.3928797,-1,0,0,0,0,0,0,0,0,0,0,0,0,0,1,0,0,0.01424348,-0.008995879,-0.003998169,0.07556152,-0.8572998,-0.5090332,0,0,0,0,0,0
2.540011,-0.3928797,-1,0,0,0,0,0,0,0,0,0,0,0,0,0,1,0,0,0,0,0,0.08056641,-0.8601074,-0.5130615,0,0,0,0,0,0
2.545011,-0.3928797,-1,0,0,0,0,0,0,0,0,0,0,0,0,0,1,0,0,0,0,0,0.08276367,-0.8706055,-0.5197754,0,0,0,0,0,0
2.550011,-0.3928797,-1,0,0,0,0,0,0,0,0,0,0,0,0,0,1,0,0,0.02573821,-0.006247139,0.003748283,0.09692383,-0.8851318,-0.4831543,0,0,0,0,0,0
2.555011,-0.3928797,-1,0,0,0,0,0,0,0,0,0,0,0,0,0,1,0,0,0,0,0,0.07348633,-0.8814697,-0.4949951,0,0,0,0,0,0
2.560011,-0.3928797,-1,0,0,0,0,0,0,0,0,0,0,0,0,0,1,0,0,0,0,0,0.06481934,-0.8674316,-0.4008789,0,0,0,0,0,0
2.565011,-0.3847782,-1,0,0,0,0,0,0,0,0,0,0,0,0,0,1,0,0,0.0288349,0.01868502,0.01707026,0.0501709,-0.8692627,-0.3951416,0,0,0,0,0,0
2.570011,-0.3686016,-1,0,0,0,0,0,0,0,0,0,0,0,0,0,1,0,0,0,0,0,0.07653809,-0.8985596,-0.416626,0,0,0,0,0,0
2.575011,-0.336352,-1,0,0,0,0,0,0,0,0,0,0,0,0,0,1,0,0,0,0,0,0.1052246,-0.9318848,-0.4287109,0,0,0,0,0,0
2.580012,-0.2642672,-1,0,0,0,0,0,0,0,0,0,0,0,0,0,1,0,0,0.01249428,0.02024073,0.03748283,0.131958,-0.8863525,-0.4864502,0,0,0,0,0,0
2.585012,-0.2244794,-1,0,0,0,0,0,0,0,0,0,0,0,0,0,0,0,0,0,0,0,0.02587891,-0.9138184,-0.4844971,0,0,0,0,0,0
2.590012,-0.1848525,-1,0,0,0,0,0,0,0,0,0,0,0,0,0,0,0,0,0,0,0,0.006591797,-0.9472656,-0.4619141,0,0,0,0,0,0
2.595012,-0.09812176,-1,0,0,0,0,0,0,0,0,0,0,0,0,0,0,0,0,0,0,0,0.03637695,-0.9949951,-0.447876,0,0,0,0,0,0
2.600012,-0.04314433,-1,0,0,0,0,0,0,0,0,0,0,0,0,0,0,0,0,0,0,0,0.09765625,-1.030396,-0.543457,0,0,0,0,0,0
2.605012,0.07454614,-1,0,0,0,0,0,0,0,0,0,0,0,0,0,0,0,0,-0.05247597,0.04872768,0.04073134,0.03369141,-0.8327637,-0.3922119,0,0,0,0,0,0
2.610012,0.1453634,-1,0,0,0,0,0,0,0,0,0,0,0,0,0,0,0,0,0,0,0,0.01049805,-0.8267822,-0.3986816,0,0,0,0,0,0
2.615012,0.2086106,-1,0,0,0,0,0,0,0,0,0,0,0,0,0,0,0,0,-0.03073842,0.07497177,0.0467324,-0.01989746,-0.8031006,-0.3616943,0,0,0,0,0,0
2.620013,0.4580168,-1,0,0,0,0,0,0,0,0,0,0,0,0,0,0,0,0,0,0,0,0.07885742,-0.8599854,-0.5245361,0,0,0,0,0,0
2.625013,0.540269,-1,0,0,0,0,0,0,0,0,0,0,0,0,0,0,0,0,0,0,0,0.07556152,-0.852417,-0.5270996,0,0,0,0,0,0
2.630013,0.6929545,-0.9332856,0,0,0,0,0,0,0,0,0,0,0,0,0,0,0,0,0,0,0,0.06018066,-0.8343506,-0.510376,0,0,0,0,0,0
2.635013,0.7646044,-0.8686867,0,0,0,0,0,0,0,0,0,0,0,0,0,0,0,0,0,0,0,0.06640625,-0.8391113,-0.5079346,0,0,0,0,0,0
2.640013,0.8674718,-0.7475448,0,0,0,0,0,0,0,0,0,0,0,0,0,0,0,0,0.04197052,0.05795929,0.04321964,0.05871582,-0.8010254,-0.4989014,0,0,0,0,0,0
2.645013,0.8993645,-0.7075,0,0,0,0,0,0,0,0,0,0,0,0,0,0,0,0,0,0,0,0.03625488,-0.8143311,-0.5059814,0,0,0,0,0,0
2.650013,0.9151183,-0.6833416,0,0,0,0,0,0,0,0,0,0,0,0,0,0,0,0,0,0,0,0.003295898,-0.8533936,-0.5158691,0,0,0,0,0,0
2.655013,0.9297888,-0.6424721,0,0,0,0,0,0,0,0,0,0,0,0,0,0,0,0,0,0,0,-0.06628418,-0.9090576,-0.4750977,0,0,0,0,0,0
2.660013,0.9380392,-0.6346734,0,0,0,0,0,0,0,0,0,0,0,0,0,0,0,0,0,0,0,-0.04772949,-0.9621582,-0.446167,0,0,0,0,0,0
2.665014,0.9380392,-0.6346734,0,0,0,0,0,0,0,0,0,0,0,0,0,0,0,0,0,0,0,-0.02368164,-1.023682,-0.4147949,0,0,0,0,0,0
2.670014,0.9380392,-0.6346734,0,0,0,0,0,0,0,0,0,0,0,0,0,0,0,0,0,0,0,0.02075195,-1.066528,-0.362915,0,0,0,0,0,0
2.675014,0.9380392,-0.6346734,0,0,0,0,0,0,0,0,0,0,0,0,0,0,0,0,0,0,0,0.0411377,-1.071899,-0.3557129,0,0,0,0,0,0
2.680014,0.9292061,-0.6340935,0,0,0,0,0,0,0,0,0,0,0,0,0,0,0,0,0.02124027,-0.02348924,-0.01224439,0.04284668,-1.073364,-0.3631592,0,0,0,0,0,0
2.685014,0.9292061,-0.6340935,0,0,0,0,0,0,0,0,0,0,0,0,0,0,0,0,0,0,0,0.04699707,-1.059204,-0.3659668,0,0,0,0,0,0
2.690014,0.9209678,-0.6418867,0,0,0,0,0,0,0,0,0,0,0,0,0,0,0,0,0,0,0,0.07128906,-1.037842,-0.3778076,0,0,0,0,0,0
2.695014,0.9051422,-0.6658976,0,0,0,0,0,0,0,0,0,0,0,0,0,1,0,0,-0.04751573,-0.02606445,-0.01130229,0.06896973,-1.0354,-0.3671875,0,0,0,0,0,0
2.700014,0.8894031,-0.6899853,0,0,0,0,0,0,0,0,0,0,0,0,0,1,0,0,0,0,0,0.0255127,-1.04248,-0.3341064,0,0,0,0,0,0
2.705014,0.8656361,-0.7220283,0,0,0,0,0,0,0,0,0,0,0,0,0,1,0,0,0,0,0,0.06237793,-1.016602,-0.3302002,0,0,0,0,0,0
2.710015,0.810544,-0.7945727,0,0,0,0,0,0,0,0,0,0,0,0,0,1,0,0,-0.07671487,-0.004747826,-0.04223066,0.009399414,-0.9193115,-0.244751,0,0,0,0,0,0
2.715015,0.7707045,-0.8345971,0,0,0,0,0,0,0,0,0,0,0,0,0,1,0,0,0,0,0,0.03027344,-0.8128662,-0.4116211,0,0,0,0,0,0
2.720015,0.7311347,-0.8749644,0,0,0,0,0,0,0,0,0,0,0,0,0,1,0,0,0,0,0,0.1600342,-0.8637695,-0.5078125,0,0,0,0,0,0
2.725015,0.6190876,-0.9545932,0,0,0,0,0,0,0,0,0,0,0,0,0,1,0,0,0,0,0,0.1466064,-0.8851318,-0.5533447,0,0,0,0,0,0
2.730015,0.5552751,-0.9947014,0,0,0,0,0,0,0,0,0,0,0,0,0,1,0,0,0,0,0,0.08825684,-0.8729248,-0.5152588,0,0,0,0,0,0
2.735015,0.4908059,-1,0,0,0,0,0,0,0,0,0,0,0,0,0,1,0,0,0,0,0,0.06347656,-0.8924561,-0.4383545,0,0,0,0,0,0
2.740015,0.3524597,-1,0,0,0,0,0,0,0,0,0,0,0,0,0,1,0,0,0,0,0,0.1119385,-0.93396,-0.4191895,0,0,0,0,0,0
2.745015,0.2882255,-1,0,0,0,0,0,0,0,0,0,0,0,0,0,1,0,0,0,0,0,0.1507568,-0.9381104,-0.442627,0,0,0,0,0,0
2.750015,0.1611441,-1,0,0,0,0,0,0,0,0,0,0,0,0,0,1,0,0,0.003748283,-0.07071761,-0.06472036,0.135498,-0.8996582,-0.3996582,0,0,0,0,0,0
2.755016,0.09812176,-1,0,0,0,0,0,0,0,0,0,0,0,0,0,1,0,0,0,0,0,0.1369629,-0.8991699,-0.4130859,0,0,0,0,0,0
2.760016,0.05099206,-1,0,0,0,0,0,0,0,0,0,0,0,0,0,1,0,0,0,0,0,0.1534424,-0.8931885,-0.4393311,0,0,0,0,0,0
2.765016,-0.05099206,-1,0,0,0,0,0,0,0,0,0,0,0,0,0,1,0,0,0,0,0,0.1450195,-0.8739014,-0.4158936,0,0,0,0,0,0
2.770016,-0.09026043,-1,0,0,0,0,0,0,0,0,0,0,0,0,0,1,0,0,0,0,0,0.1394043,-0.8692627,-0.4331055,0,0,0,0,0,0
2.775016,-0.1296006,-1,0,0,0,0,0,0,0,0,0,0,0,0,0,1,0,0,0,0,0,0.137207,-0.8658447,-0.4555664,0,0,0,0,0,0
2.780016,-0.1848525,-1,0,0,0,0,0,0,0,0,0,0,0,0,0,1,0,0,0,0,0,0.1000977,-0.852417,-0.4122314,0,0,0,0,0,0
2.785016,-0.2165419,-1,0,0,0,0,0,0,0,0,0,0,0,0,0,1,0,0,0,0,0,0.09143066,-0.8498535,-0.4208984,0,0,0,0,0,0
2.790016,-0.2324234,-1,0,0,0,0,0,0,0,0,0,0,0,0,0,1,0,0,0,0,0,0.09667969,-0.8469238,-0.4499512,0,0,0,0,0,0
2.795017,-0.2642672,-1,0,0,0,0,0,0,0,0,0,0,0,0,0,1,0,0,0,0,0,0.08728027,-0.828125,-0.4377441,0,0,0,0,0,0
2.800017,-0.2802319,-1,0,0,0,0,0,0,0,0,0,0,0,0,0,1,0,0,0,0,0,0.08190918,-0.822876,-0.4499512,0,0,0,0,0,0
2.805017,-0.2962267,-1,0,0,0,0,0,0,0,0,0,0,0,0,0,1,0,0,-0.007746452,-0.01974096,0.03398444,0.06762695,-0.8223877,-0.4685059,0,0,0,0,0,0
2.810017,-0.3042357,-1,0,0,0,0,0,0,0,0,0,0,0,0,0,1,0,0,0,0,0,0.06591797,-0.8133545,-0.4696045,0,0,0,0,0,0
2.815017,-0.3202776,-1,0,0,0,0,0,0,0,0,0,0,0,0,0,1,0,0,0,0,0,0.06481934,-0.8171387,-0.4833984,0,0,0,0,0,0
2.820017,-0.336352,-1,0,0,0,0,0,0,0,0,0,0,0,0,0,1,0,0,0.005305154,-0.01360887,0.02998566,0.05822754,-0.8186035,-0.4863281,0,0,0,0,0,0
2.825017,-0.3444016,-1,0,0,0,0,0,0,0,0,0,0,0,0,0,1,0,0,0,0,0,0.0546875,-0.8287354,-0.4821777,0,0,0,0,0,0
2.830017,-0.3524597,-1,0,0,0,0,0,0,0,0,0,0,0,0,0,1,0,0,0,0,0,0.04638672,-0.8432617,-0.4776611,0,0,0,0,0,0
2.835017,-0.3766855,-1,0,0,0,0,0,0,0,0,0,0,0,0,0,1,0,0,0,0,0,0.04394531,-0.8775635,-0.4902344,0,0,0,0,0,0
2.840018,-0.3847782,-1,0,0,0,0,0,0,0,0,0,0,0,0,0,1,0,0,0,0,0,0.0456543,-0.8843994,-0.4893799,0,0,0,0,0,0
2.845018,-0.4172379,-1,0,0,0,0,0,0,0,0,0,0,0,0,0,1,0,0,0.01124485,-0.01924119,0.03573363,0.0489502,-0.8903809,-0.503418,0,0,0,0,0,0
2.850018,-0.4416777,-1,0,0,0,0,0,0,0,0,0,0,0,0,0,1,0,0,0,0,0,0.0489502,-0.8981934,-0.5076904,0,0,0,0,0,0
2.855018,-0.4652353,-0.9980689,0,0,0,0,0,0,0,0,0,0,0,0,0,1,0,0,0,0,0,0.04504395,-0.9022217,-0.4984131,0,0,0,0,0,0
2.860018,-0.5047147,-0.9736622,0,0,0,0,0,0,0,0,0,0,0,0,0,1,0,0,0,0,0,0.04638672,-0.9146729,-0.494751,0,0,0,0,0,0
2.865018,-0.5283443,-0.9573756,0,0,0,0,0,0,0,0,0,0,0,0,0,1,0,0,0,0,0,0.0513916,-0.9162598,-0.494751,0,0,0,0,0,0
2.870018,-0.5917731,-0.9174469,0,0,0,0,0,0,0,0,0,0,0,0,0,1,0,0,0.00549793,-0.0297388,0.04498306,0.0559082,-0.9066162,-0.4847412,0,0,0,0,0,0
2.875018,-0.631721,-0.8939448,0,0,0,0,0,0,0,0,0,0,0,0,0,1,0,0,0,0,0,0.05883789,-0.9106445,-0.4847412,0,0,0,0,0,0
2.880018,-0.6628458,-0.8613026,0,0,0,0,0,0,0,0,0,0,0,0,0,1,0,0,0,0,0,0.05505371,-0.9139404,-0.4802246,0,0,0,0,0,0
2.885019,-0.7498012,-0.7815388,0,0,0,0,0,0,0,0,0,0,0,0,0,1,0,0,0,0,0,0.05273438,-0.9199219,-0.4638672,0,0,0,0,0,0
2.890019,-0.7974913,-0.7340094,0,0,0,0,0,0,0,0,0,0,0,0,0,1,0,0,0,0,0,0.05285645,-0.9207764,-0.4667969,0,0,0,0,0,0
2.895019,-0.8675779,-0.6298854,0,0,0,0,0,0,0,0,0,0,0,0,0,1,0,0,0,-0.02298947,0.02873684,0.03479004,-0.9138184,-0.475708,0,0,0,0,0,0
2.900019,-0.8839297,-0.6143906,0,0,0,0,0,0,0,0,0,0,0,0,0,1,0,0,0,0,0,0.0213623,-0.9250488,-0.4781494,0,0,0,0,0,0
2.905019,-0.9003575,-0.5989163,0,0,0,0,0,0,0,0,0,0,0,0,0,1,0,0,-0.0009995422,-0.01349382,0.003498398,-0.006347656,-0.9517822,-0.4648438,0,0,0,0,0,0
2.910019,-0.899761,-0.590592,0,0,0,0,0,0,0,0,0,0,0,0,0,1,0,0,0,0,0,-0.003417969,-0.958252,-0.4569092,0,0,0,0,0,0
2.915019,-0.899761,-0.590592,0,0,0,0,0,0,0,0,0,0,0,0,0,1,0,0,0,0,0,0.01208496,-0.9559326,-0.4571533,0,0,0,0,0,0
2.920019,-0.899761,-0.590592,0,0,0,0,0,0,0,0,0,0,0,0,0,1,0,0,0,0,0,0.046875,-0.9393311,-0.460083,0,0,0,0,0,0
2.92502,-0.9086004,-0.5911855,0,0,0,0,0,0,0,0,0,0,0,0,0,1,0,0,0,0,0,0.05761719,-0.9294434,-0.4609375,0,0,0,0,0,0
2.93002,-0.9080103,-0.5828713,0,0,0,0,0,0,0,0,0,0,0,0,0,1,0,0,-0.02798718,0.01374371,-0.02348924,0.06945801,-0.9063721,-0.4658203,0,0,0,0,0,0
2.93502,-0.9074212,-0.574568,0,0,0,0,0,0,0,0,0,0,0,0,0,1,0,0,0,0,0,0.07092285,-0.8979492,-0.4698486,0,0,0,0,0,0
2.94002,-0.9074212,-0.574568,0,0,0,0,0,0,0,0,0,0,0,0,0,1,0,0,0,0,0,0.07043457,-0.8945313,-0.4696045,0,0,0,0,0,0
2.94502,-0.9228483,-0.542619,0,0,0,0,0,0,0,0,0,0,0,0,0,1,0,0,-0.0009229611,0.02422773,-0.0189207,0.06555176,-0.9002686,-0.4731445,0,0,0,0,0,0
2.95002,-0.9389785,-0.5190135,0,0,0,0,0,0,0,0,0,0,0,0,0,1,0,0,0,0,0,0.04748535,-0.9083252,-0.4645996,0,0,0,0,0,0
2.95502,-0.954171,-0.4790651,0,0,0,0,0,0,0,0,0,0,0,0,0,1,0,0,0,0,0,0.06152344,-0.9172363,-0.4539795,0,0,0,0,0,0
2.96002,-0.9934097,-0.3839073,0,0,0,0,0,0,0,0,0,0,0,0,0,1,0,0,0,0,0,0.07019043,-0.9263916,-0.4575195,0,0,0,0,0,0
2.96502,-1,-0.3283107,0,0,0,0,0,0,0,0,0,0,0,0,0,1,0,0,0,0,0,0.06872559,-0.9229736,-0.4536133,0,0,0,0,0,0
2.970021,-1,-0.2165419,0,0,0,0,0,0,0,0,0,0,0,0,0,1,0,0,-0.008496109,0.03248512,0.009495651,0.06884766,-0.9193115,-0.4431152,0,0,0,0,0,0
2.975021,-1,-0.1611441,0,0,0,0,0,0,0,0,0,0,0,0,0,1,0,0,0,0,0,0.0723877,-0.9193115,-0.4470215,0,0,0,0,0,0
2.980021,-1,-0.09026043,0,0,0,0,0,0,0,0,0,0,0,0,0,1,0,0,0,0,0,0.08166504,-0.9138184,-0.4525146,0,0,0,0,0,0
2.985021,-1,0.035298,0,0,0,0,0,0,0,0,0,0,0,0,0,1,0,0,-0.005305154,0.02260457,0.02606445,0.07678223,-0.9100342,-0.4543457,0,0,0,0,0,0
2.990021,-1,0.09812176,0,0,0,0,0,0,0,0,0,0,0,0,0,1,0,0,0,0,0,0.06359863,-0.9091797,-0.4604492,0,0,0,0,0,0
2.995021,-1,0.1532514,0,0,0,0,0,0,0,0,0,0,0,0,0,1,0,0,0,0,0,0.046875,-0.9067383,-0.4625244,0,0,0,0,0,0
3.000021,-1,0.2403741,0,0,0,0,0,0,0,0,0,0,0,0,0,1,0,0,0.005997253,0.01524302,0.02448878,0.02307129,-0.9140625,-0.4624023,0,0,0,0,0,0
3.005021,-1,0.2882255,0,0,0,0,0,0,0,0,0,0,0,0,0,1,0,0,0,0,0,0.008789063,-0.9223633,-0.4586182,0,0,0,0,0,0
3.010021,-0.9463371,0.3494772,0,0,0,0,0,0,0,0,0,0,0,0,0,1,0,0,-0.009245765,0.006996796,0.01574279,0.01147461,-0.9194336,-0.442749,0,0,0,0,0,0
3.015022,-0.8754888,0.3696508,0,0,0,0,0,0,0,0,0,0,0,0,0,1,0,0,0,0,0,0.02575684,-0.9156494,-0.4422607,0,0,0,0,0,0
3.020022,-0.7970248,0.3965873,0,0,0,0,0,0,0,0,0,0,0,0,0,1,0,0,0,0,0,0.03930664,-0.9106445,-0.4420166,0,0,0,0,0,0
3.025022,-0.6338041,0.4312868,0,0,0,0,0,0,0,0,0,0,0,0,0,1,0,0,-0.03498113,0,0.01249326,0.03588867,-0.914917,-0.4362793,0,0,0,0,0,0
3.030022,-0.5486336,0.4308062,0,0,0,0,0,0,0,0,0,0,0,0,0,1,0,0,0,0,0,0.0279541,-0.9211426,-0.4338379,0,0,0,0,0,0
3.035022,-0.4737602,0.4303623,0,0,0,0,0,0,0,0,0,0,0,0,0,1,0,0,0,0,0,0.02160645,-0.9205322,-0.4382324,0,0,0,0,0,0
3.040022,-0.328194,0.4111062,0,0,0,0,0,0,0,0,0,0,0,0,0,1,0,0,0,0,0,0.01940918,-0.9208984,-0.4360352,0,0,0,0,0,0
3.045022,-0.2668722,0.4019974,0,0,0,0,0,0,0,0,0,0,0,0,0,1,0,0,0,0,0,0.0291748,-0.923584,-0.4404297,0,0,0,0,0,0
3.050022,-0.208089,0.393057,0,0,0,0,0,0,0,0,0,0,0,0,0,1,0,0,0,0,0,0.03320313,-0.9140625,-0.4420166,0,0,0,0,0,0
3.055022,-0.1116823,0.3797198,0,0,0,0,0,0,0,0,0,0,0,0,0,1,0,0,0,0,0,0.04467773,-0.9002686,-0.4453125,0,0,0,0,0,0
3.060023,-0.07262503,0.3757556,0,0,0,0,0,0,0,0,0,0,0,0,0,1,0,0,0,0,0,0.05200195,-0.8913574,-0.4501953,0,0,0,0,0,0
3.065023,0,0.2987313,0,0,0,0,0,0,0,0,0,0,0,0,0,1,0,0,-0.03448702,-0.01174558,-0.004498306,0.05932617,-0.8798828,-0.4580078,0,0,0,0,0,0
3.070023,0.0134,0.1244286,0,0,0,0,0,0,0,0,0,0,0,0,0,1,0,0,0,0,0,0.06445313,-0.8615723,-0.4667969,0,0,0,0,0,0
3.075023,0,0,0,0,0,0,0,0,0,0,0,0,0,0,0,1,0,0,0,0,0,0.1082764,-0.9022217,-0.3740234,0,0,0,0,0,0
3.080023,0,0,0,0,0,0,0,0,0,0,0,0,0,0,0,1,0,0,0,0,0,0.09606934,-0.852417,-0.4429932,0,0,0,0,0,0
3.085023,0,0,0,0,0,0,0,0,0,0,0,0,0,0,0,1,0,0,0,0,0,0.0916748,-0.8057861,-0.4599609,0,0,0,0,0,0
3.090023,0,0,0,0,0,0,0,0,0,0,0,0,0,0,0,1,0,0,0,0,0,0.07226563,-0.8074951,-0.4604492,0,0,0,0,0,0
3.095023,0,0,0,0,0,0,0,0,0,0,0,0,0,0,0,1,0,0,0,0,0,0.04333496,-0.8120117,-0.4863281,0,0,0,0,0,0
3.100024,0,0,0,0,0,0,0,0,0,0,0,0,0,0,0,1,0,0,0,0,0,0.04943848,-0.7923584,-0.4661865,0,0,0,0,0,0
3.105024,0,0,0,0,0,0,0,0,0,0,0,0,0,0,0,1,0,0,-0.0007497177,0.002249153,0.06172676,0.0579834,-0.8146973,-0.4865723,0,0,0,0,0,0
3.110024,0,0,0,0,0,0,0,0,0,0,0,0,0,0,0,1,0,0,0,0,0,0.06921387,-0.8167725,-0.4827881,0,0,0,0,0,0
3.115024,0,0,0,0,0,0,0,0,0,0,0,0,0,0,0,1,0,0,0,0,0,0.07739258,-0.8204346,-0.4703369,0,0,0,0,0,0
3.120024,0,0,0,0,0,0,0,0,0,0,0,0,0,0,0,1,0,0,0.01730094,0.01199532,0.06389815,0.07678223,-0.8706055,-0.472168,0,0,0,0,0,0
3.125024,0,0,0,0,0,0,0,0,0,0,0,0,0,0,0,1,0,0,0,0,0,0.06274414,-0.8916016,-0.465332,0,0,0,0,0,0
3.130024,0,0,0,0,0,0,0,0,0,0,0,0,0,0,0,1,0,0,0,0,0,0.04187012,-0.9101563,-0.447876,0,0,0,0,0,0
3.135024,0,0,0.02362888,-0.02219683,0,0,0,0,0,0,0,0,0,0,0,1,0,0,0,0,0,0.03234863,-0.9581299,-0.4627686,0,0,0,0,0,0
3.140024,0,0,0.04250327,-0.0402058,0,0,0,0,0,0,0,0,0,0,0,1,0,0,0,0,0,0.01501465,-0.961792,-0.4702148,0,0,0,0,0,0
3.145025,0,0,0.06129483,-0.05830484,0,0,0,0,0,0,0,0,0,0,0,1,0,0,0,0,0,-0.02929688,-0.9063721,-0.4680176,0,0,0,0,0,0
3.150025,0,0,0.1012833,-0.1012833,0,0,0,0,0,0,0,0,0,0,0,1,0,0,0,0,0,-0.1994629,-0.784668,-0.5665283,0,0,0,0,0,0
3.155025,0,0,0.1153048,-0.1243483,0,0,0,0,0,0,0,0,0,0,0,1,0,0,-0.03967683,0.02583608,0.07151057,-0.2017822,-0.8066406,-0.5736084,0,0,0,0,0,0
3.160025,0,0,0.1535961,-0.1692161,0,0,0,0,0,0,0,0,0,0,0,1,0,0,0,0,0,-0.06738281,-0.8911133,-0.4714355,0,0,0,0,0,0
3.165025,0,0,0.1626264,-0.1786224,0,0,0,0,0,0,0,0,0,0,0,1,0,0,0,0,0,-0.03405762,-0.8828125,-0.4625244,0,0,0,0,0,0
3.170025,0.04445881,-0.1013661,0.1716687,-0.1880181,0,0,0,0,0,0,0,0,0,0,0,1,0,0,0,0,0,-0.01696777,-0.8746338,-0.4655762,0,0,0,0,0,0
3.175025,0.1091414,-0.4332585,0.1915448,-0.2144159,0,0,0,0,0,0,0,0,0,0,0,1,0,0,0,0,0,-0.00402832,-0.9052734,-0.4735107,0,0,0,0,0,0
3.180025,0.1419583,-0.6442722,0.2005697,-0.2238241,0,0,0,0,0,0,0,0,0,0,0,1,0,0,0,0,0,0.01867676,-0.9055176,-0.4570313,0,0,0,0,0,0
3.185025,0.1769445,-1,0.2202481,-0.2504191,0,0,0,0,0,0,0,0,0,0,0,1,0,0,0.1029612,0.005248024,-0.1179556,0.07080078,-0.9158936,-0.3902588,0,0,0,0,0,0
3.190026,0.1848525,-1,0.229264,-0.2598326,0,0,0,0,0,0,0,0,0,0,0,1,0,0,0,0,0,0.1674805,-1.120483,-0.2824707,0,0,0,0,0,0
3.195026,0.1532514,-1,0.2307961,-0.2677235,0,0,0,0,0,0,0,0,0,0,0,1,0,0,0,0,0,0.2011719,-1.061157,-0.3074951,0,0,0,0,0,0
3.200026,0.09812176,-1,0.2412582,-0.2851233,0,0,0,0,0,0,0,0,0,0,0,1,0,0,-0.01706876,0.00415186,-0.0869584,0.2490234,-1.022949,-0.3824463,0,0,0,0,0,0
3.205026,0.09026043,-1,0.251642,-0.3026075,0,0,0,0,0,0,0,0,0,0,0,1,0,0,0,0,0,0.192627,-1.048584,-0.3953857,0,0,0,0,0,0
3.210026,0.07454614,-1,0.2609142,-0.3599955,0,0,0,0,0,0,0,0,0,0,0,1,0,0,-0.03344849,0.02468268,-0.03690867,0.1636963,-1.029907,-0.4145508,0,0,0,0,0,0
3.215026,0.06669273,-1,0.2732536,-0.3946996,0,0,0,0,0,0,0,0,0,0,0,1,0,0,0,0,0,0.1463623,-1.003784,-0.3884277,0,0,0,0,0,0
3.220026,0.06669273,-1,0.2918309,-0.4222964,0,0,0,0,0,0,0,0,0,0,0,1,0,0,0,0,0,0.07055664,-1.03894,-0.3348389,0,0,0,0,0,0
3.225026,0.05884144,-1,0.3057897,-0.4745013,0,0,0,0,0,0,0,0,0,0,0,1,0,0,-0.05847798,0.05472939,0.03448702,0.1610107,-0.9283447,-0.5427246,0,0,0,0,0,0
3.230026,0.05884144,-1,0.3250958,-0.5108649,0,0,0,0,0,0,0,0,0,0,0,1,0,0,0,0,0,0.1387939,-0.9127197,-0.4902344,0,0,0,0,0,0
3.235027,0.05884144,-1,0.3374042,-0.5550844,0,0,0,0,0,0,0,0,0,0,0,1,0,0,0,0,0,0.1314697,-0.9128418,-0.5019531,0,0,0,0,0,0
3.240027,0.05884144,-1,0.3675491,-0.6274322,0,0,0,0,0,0,0,0,0,0,0,1,0,0,0,0,0,0.1126709,-0.8815918,-0.5195313,0,0,0,0,0,0
3.245027,0.05884144,-1,0.378514,-0.6633363,0,0,0,0,0,0,0,0,0,0,0,1,0,0,0,0,0,0.1008301,-0.8673096,-0.4847412,0,0,0,0,0,0
3.250027,0.08240198,-1,0.4080904,-0.7360884,0,0,0,0,0,0,0,0,0,0,0,1,0,0,-0.0256054,0.02514404,0.08811947,0.0723877,-0.871582,-0.505249,0,0,0,0,0,0
3.255027,0.09026043,-1,0.4261461,-0.7639918,0,0,0,0,0,0,0,0,0,0,0,1,0,0,0,0,0,0.05029297,-0.8466797,-0.4996338,0,0,0,0,0,0
3.260027,0.09812176,-1,0.4355073,-0.7823716,0,0,0,0,0,0,0,0,0,0,0,1,0,0,0,0,0,0.04846191,-0.8289795,-0.4869385,0,0,0,0,0,0
3.265027,0.1296006,-1,0.4629497,-0.8286411,0,0,0,0,0,0,0,0,0,0,0,1,0,0,0,0,0,0.03747559,-0.84021,-0.5241699,0,0,0,0,0,0
3.270027,0.1453634,-1,0.472304,-0.8470246,0,0,0,0,0,0,0,0,0,0,0,1,0,0,0,0,0,0.01269531,-0.8243408,-0.5136719,0,0,0,0,0,0
3.275028,0.1611441,-1,0.4810575,-0.856517,0,0,0,0,0,0,0,0,0,0,0,1,0,0,0,0,0,0.005371094,-0.8151855,-0.4993896,0,0,0,0,0,0
3.280028,0.1848525,-1,0.4985968,-0.8754889,0,0,0,0,0,0,0,0,0,0,0,1,0,0,0,0,0,0.0078125,-0.824585,-0.5238037,0,0,0,0,0,0
3.285028,0.2006854,-1,0.5067916,-0.8760815,0,0,0,0,0,0,0,0,0,0,0,1,0,0,0,0,0,-0.00769043,-0.8193359,-0.5169678,0,0,0,0,0,0
3.290028,0.2165419,-1,0.5073821,-0.8849687,0,0,0,0,0,0,0,0,0,0,0,1,0,0,-0.005248024,-0.009496424,0.05422958,-0.01147461,-0.8205566,-0.4892578,0,0,0,0,0,0
3.295028,0.2244794,-1,0.5073821,-0.8849687,0,0,0,0,0,0,0,0,0,0,0,1,0,0,0,0,0,-0.01135254,-0.8317871,-0.4993896,0,0,0,0,0,0
3.300028,0.2324234,-1,0.5073821,-0.8849687,0,0,0,0,0,0,0,0,0,0,0,1,0,0,0,0,0,-0.01721191,-0.8388672,-0.4925537,0,0,0,0,0,0
3.305028,0.2483314,-1,0.5073821,-0.8849687,0,0,0,0,0,0,0,0,0,0,0,1,0,0,0.02124027,-0.02149016,0.01799176,-0.00793457,-0.8458252,-0.4702148,0,0,0,0,0,0
3.310028,0.2483314,-1,0.5073821,-0.8849687,0,0,0,0,0,0,0,0,0,0,0,1,0,0,0,0,0,-0.008300781,-0.8688965,-0.4776611,0,0,0,0,0,0
3.315028,0.2562958,-1,0.5067916,-0.8760815,0,0,0,0,0,0,0,0,0,0,0,1,0,0,0,0,0,-0.01367188,-0.8808594,-0.4735107,0,0,0,0,0,0
3.320029,0.2642672,-1,0.5061945,-0.8672013,0,0,0,0,0,0,0,0,0,0,0,1,0,0,0.02649003,-0.01999247,-0.009246519,-0.006591797,-0.8880615,-0.4516602,0,0,0,0,0,0
3.325029,0.2722459,-1,0.5055906,-0.8583282,0,0,0,0,0,0,0,0,0,0,0,1,0,0,0,0,0,-0.001342773,-0.8963623,-0.4584961,0,0,0,0,0,0
3.330029,0.2722459,-1,0.4967919,-0.8488493,0,0,0,0,0,0,0,0,0,0,0,1,0,0,0,0,0,-0.004638672,-0.8991699,-0.4615479,0,0,0,0,0,0
3.335029,0.2802319,-1,0.4861211,-0.8127945,0,0,0,0,0,0,0,0,0,0,0,1,0,0,0,0,0,-0.008300781,-0.9000244,-0.4542236,0,0,0,0,0,0
3.340029,0.2802319,-1,0.4760255,-0.7856356,0,0,0,0,0,0,0,0,0,0,0,1,0,0,0,0,0,-0.003173828,-0.9061279,-0.4608154,0,0,0,0,0,0
3.345029,0.2882255,-1,0.4665636,-0.7673236,0,0,0,0,0,0,0,0,0,0,0,1,0,0,0,0,0,0.005126953,-0.9124756,-0.4691162,0,0,0,0,0,0
3.350029,0.2882255,-1,0.4476125,-0.7307178,0,0,0,0,0,0,0,0,0,0,0,1,0,0,0.00674691,-0.0004997711,-0.03148558,0.01025391,-0.911377,-0.4543457,0,0,0,0,0,0
3.355029,0.2962267,-1,0.4374003,-0.703644,0,0,0,0,0,0,0,0,0,0,0,1,0,0,0,0,0,0.01623535,-0.9086914,-0.4609375,0,0,0,0,0,0
3.360029,0.2962267,-1,0.4183539,-0.6671048,0,0,0,0,0,0,0,0,0,0,0,1,0,0,0,0,0,0.02197266,-0.9012451,-0.4677734,0,0,0,0,0,0
3.36503,0.3042357,-1,0.3976397,-0.6131827,0,0,0,0,0,0,0,0,0,0,0,1,0,0,0.006247139,0.01099496,-0.03073592,0.02160645,-0.9036865,-0.4610596,0,0,0,0,0,0
3.37003,0.3122526,-1,0.3871829,-0.5863056,0,0,0,0,0,0,0,0,0,0,0,1,0,0,0,0,0,0.02368164,-0.9082031,-0.4610596,0,0,0,0,0,0
3.37503,0.3202776,-1,0.3678623,-0.5499724,0,0,0,0,0,0,0,0,0,0,0,1,0,0,0,0,0,0.02111816,-0.9104004,-0.4649658,0,0,0,0,0,0
3.38003,0.336352,-1,0.3445475,-0.4795249,0,0,0,0,0,0,0,0,0,0,0,1,0,0,0,0,0,0.02099609,-0.9157715,-0.4539795,0,0,0,0,0,0
3.38503,0.3444016,-1,0.3315136,-0.436202,0,0,0,0,0,0,0,0,0,0,0,1,0,0,0,0,0,0.01953125,-0.9154053,-0.4533691,0,0,0,0,0,0
3.39003,0.3605264,-1,0.3029969,-0.3429525,0,0,0,0,0,0,0,0,0,0,0,1,0,0,0.01699222,0.01674233,-0.0277373,0.02575684,-0.9094238,-0.4649658,0,0,0,0,0,0
3.39503,0.3766855,-1,0.2872219,-0.2936763,0,0,0,0,0,0,0,0,0,0,0,1,0,0,0,0,0,0.02783203,-0.9038086,-0.4641113,0,0,0,0,0,0
3.40003,0.3847782,-1,0.2692372,-0.2382904,0,0,0,0,0,0,0,0,0,0,0,1,0,0,0,0,0,0.0267334,-0.9005127,-0.463501,0,0,0,0,0,0
3.40503,0.4091095,-1,0.234196,-0.1495468,0,0,0,0,0,0,0,0,0,0,0,1,0,0,0.01974096,0.009495651,-0.01949107,0.03601074,-0.9024658,-0.4642334,0,0,0,0,0,0
3.410031,0.4253754,-1,0.2094775,-0.1140194,0,0,0,0,0,0,0,0,0,0,0,1,0,0,0,0,0,0.05187988,-0.8912354,-0.4840088,0,0,0,0,0,0
3.415031,0.433522,-1,0.1844946,-0.08117762,0,0,0,0,0,0,0,0,0,0,0,1,0,0,0,0,0,0.06030273,-0.8903809,-0.4938965,0,0,0,0,0,0
3.420031,0.4743927,-1,0.1319605,-0.04263338,0,0,0,0,0,0,0,0,0,0,0,1,0,0,0.03321488,0.0009226355,-0.006689108,0.07006836,-0.9077148,-0.4807129,0,0,0,0,0,0
3.425031,0.4990265,-1,0.1011733,-0.02572201,0,0,0,0,0,0,0,0,0,0,0,1,0,0,0,0,0,0.07495117,-0.9136963,-0.4707031,0,0,0,0,0,0
3.430031,0.5154955,-1,0.05249975,-0.009642811,0,0,0,0,0,0,0,0,0,0,0,1,0,0,0,0,0,0.07543945,-0.916748,-0.4625244,0,0,0,0,0,0
3.435031,0.5651261,-1,0,0,0,0,0,0,0,0,0,0,0,0,0,1,0,0,0.04023157,0.0009995422,0.01024531,0.08618164,-0.9202881,-0.4602051,0,0,0,0,0,0
3.440031,0.5983981,-1,0,0,0,0,0,0,0,0,0,0,0,0,0,1,0,0,0,0,0,0.08422852,-0.9348145,-0.4522705,0,0,0,0,0,0
3.445031,0.6223882,-1,0,0,0,0,0,0,0,0,0,0,0,0,0,1,0,0,0,0,0,0.06713867,-0.9327393,-0.4434814,0,0,0,0,0,0
3.450032,0.6783802,-0.9673942,0,0,0,0,0,0,0,0,0,0,0,0,0,1,0,0,0,0,0,0.06628418,-0.9172363,-0.4449463,0,0,0,0,0,0
3.455032,0.7019819,-0.9426614,0,0,0,0,0,0,0,0,0,0,0,0,0,1,0,0,0,0,0,0.07116699,-0.9249268,-0.4344482,0,0,0,0,0,0
3.460032,0.7347088,-0.9274194,0,0,0,0,0,0,0,0,0,0,0,0,0,1,0,0,0,0,0,0.07275391,-0.9293213,-0.4249268,0,0,0,0,0,0
3.465032,0.7902642,-0.8704941,0,0,0,0,0,0,0,0,0,0,0,0,0,1,0,0,0,0,0,0.06616211,-0.9328613,-0.430542,0,0,0,0,0,0
3.470032,0.8142135,-0.8463007,0,0,0,0,0,0,0,0,0,0,0,0,0,1,0,0,0,0,0,0.06176758,-0.9316406,-0.4371338,0,0,0,0,0,0
3.475032,0.8463007,-0.8142135,0,0,0,0,0,0,0,0,0,0,0,0,0,1,0,0,0,0,0,0.0526123,-0.9272461,-0.4345703,0,0,0,0,0,0
3.480032,0.885493,-0.7572768,0,0,0,0,0,0,0,0,0,0,0,0,0,1,0,0,0,0,0,0.04675293,-0.9110107,-0.4481201,0,0,0,0,0,0
3.485032,0.9180699,-0.725636,0,0,0,0,0,0,0,0,0,0,0,0,0,1,0,0,0,0,0,0.04174805,-0.9039307,-0.4482422,0,0,0,0,0,0
3.490032,0.9491705,-0.6688248,0,0,0,0,0,0,0,0,0,0,0,0,0,1,0,0,-0.01099586,0.008246895,0.05372977,0.03491211,-0.9019775,-0.4616699,0,0,0,0,0,0
3.495033,0.9651414,-0.6447625,0,0,0,0,0,0,0,0,0,0,0,0,0,1,0,0,0,0,0,0.02392578,-0.8925781,-0.4643555,0,0,0,0,0,0
3.500033,0.9728824,-0.6285701,0,0,0,0,0,0,0,0,0,0,0,0,0,1,0,0,0,0,0,0.01525879,-0.8829346,-0.4620361,0,0,0,0,0,0
3.505033,0.9879154,-0.5879496,0,0,0,0,0,0,0,0,0,0,0,0,0,1,0,0,-0.0006920377,0.005074943,0.03575528,0.01062012,-0.873291,-0.4610596,0,0,0,0,0,0
3.510033,0.995759,-0.5718616,0,0,0,0,0,0,0,0,0,0,0,0,0,1,0,0,0,0,0,0.003051758,-0.8793945,-0.4562988,0,0,0,0,0,0
3.515033,1,-0.5723898,0.01273989,-0.0003107291,0,0,0,0,0,0,0,0,0,0,0,1,0,0,0,0,0,-0.0006103516,-0.8846436,-0.4569092,0,0,0,0,0,0
3.520033,1,-0.5557991,0.03114187,0,0,0,0,0,0,0,0,0,0,0,0,1,0,0,0,0,0,0.004150391,-0.8990479,-0.4521484,0,0,0,0,0,0
3.525033,1,-0.5557991,0.04036909,0,0,0,0,0,0,0,0,0,0,0,0,1,0,0,0,0,0,0.0123291,-0.9005127,-0.442627,0,0,0,0,0,0
3.530033,1,-0.547518,0.05882353,0,0,0,0,0,0,0,0,0,0,0,0,1,0,0,-0.002748965,0.003498683,0.007247271,0.02380371,-0.8847656,-0.4522705,0,0,0,0,0,0
3.535033,1,-0.5480344,0.06805075,0,0,0,0,0,0,0,0,0,0,0,0,1,0,0,0,0,0,0.01721191,-0.8878174,-0.4439697,0,0,0,0,0,0
3.540034,1,-0.5480344,0.07727797,0,0,0,0,0,0,0,0,0,0,0,0,1,0,0,0,0,0,0.01599121,-0.8934326,-0.4416504,0,0,0,0,0,0
3.545034,1,-0.5397605,0.08650518,0,0,0,0,0,0,0,0,0,0,0,0,1,0,0,-0.005305622,0.008073773,0.00299883,0.01806641,-0.895752,-0.4434814,0,0,0,0,0,0
3.550034,1,-0.5397605,0.09573241,0,0,0,0,0,0,0,0,0,0,0,0,1,0,0,0,0,0,0.02209473,-0.8942871,-0.4438477,0,0,0,0,0,0
3.555034,1,-0.5320019,0.09573241,0,0,0,0,0,0,0,0,0,0,0,0,1,0,0,0,0,0,0.0246582,-0.8942871,-0.444458,0,0,0,0,0,0
3.560034,1,-0.5154955,0.1049596,0,0,0,0,0,0,0,0,0,0,0,0,1,0,0,-0.006497024,0.01199451,0.00449794,0.02294922,-0.897583,-0.4443359,0,0,0,0,0,0
3.565034,1,-0.5154955,0.1049596,0,0,0,0,0,0,0,0,0,0,0,0,1,0,0,0,0,0,0.03027344,-0.8955078,-0.4498291,0,0,0,0,0,0
3.570034,1,-0.5072563,0.1049596,0,0,0,0,0,0,0,0,0,0,0,0,1,0,0,0,0,0,0.03027344,-0.8983154,-0.4530029,0,0,0,0,0,0
3.575034,1,-0.4908059,0.1049596,0,0,0,0,0,0,0,0,0,0,0,0,1,0,0,-0.00674746,0.01324501,0.003998494,0.02941895,-0.8981934,-0.4509277,0,0,0,0,0,0
3.580034,1,-0.4743927,0.1049596,0,0,0,0,0,0,0,0,0,0,0,0,1,0,0,0,0,0,0.02844238,-0.8989258,-0.4545898,0,0,0,0,0,0
3.585035,1,-0.4662001,0.1049596,0,0,0,0,0,0,0,0,0,0,0,0,1,0,0,0,0,0,0.0324707,-0.9061279,-0.4573975,0,0,0,0,0,0
3.590035,1,-0.4498426,0.1049596,0,0,0,0,0,0,0,0,0,0,0,0,1,0,0,0,0,0,0.02600098,-0.9039307,-0.4654541,0,0,0,0,0,0
3.595035,1,-0.4416777,0.1049596,0,0,0,0,0,0,0,0,0,0,0,0,1,0,0,0,0,0,0.02294922,-0.9084473,-0.4700928,0,0,0,0,0,0
3.600035,1,-0.433522,0.1049596,0,0,0,0,0,0,0,0,0,0,0,0,1,0,0,0,0,0,0.02441406,-0.9056396,-0.4720459,0,0,0,0,0,0
3.605035,1,-0.4253754,0.1049596,0,0,0,0,0,0,0,0,0,0,0,0,1,0,0,0,0,0,0.02270508,-0.8980713,-0.4754639,0,0,0,0,0,0
3.610035,1,-0.4253754,0.1049596,0,0,0,0,0,0,0,0,0,0,0,0,1,0,0,0,0,0,0.0201416,-0.8986816,-0.4696045,0,0,0,0,0,0
3.615035,1,-0.4253754,0.1049596,0,0,0,0,0,0,0,0,0,0,0,0,1,0,0,0.001999247,-0.002499059,-0.01799322,0.03161621,-0.8846436,-0.4747314,0,0,0,0,0,0
3.620035,1,-0.4253754,0.1049596,0,0,0,0,0,0,0,0,0,0,0,0,1,0,0,0,0,0,0.01672363,-0.8896484,-0.5059814,0,0,0,0,0,0
3.625036,1,-0.4253754,0.1051727,0.005172426,0,0,0,0,0,0,0,0,0,0,0,1,0,0,0,0,0,-0.005981445,-0.8740234,-0.5256348,0,0,0,0,0,0
3.630036,1,-0.4825947,0.08718024,0.00764739,0,0,0,0,0,0,0,0,0,0,0,1,0,0,0.01384075,-0.008073773,-0.04475177,-0.03808594,-0.8701172,-0.5766602,0,0,0,0,0,0
3.635036,1,-0.5320019,0.06883083,0.006493475,0,0,0,0,0,0,0,0,0,0,0,1,0,0,0,0,0,-0.04162598,-0.8786621,-0.5762939,0,0,0,0,0,0
3.640036,1,-0.5890183,0.04135928,0.004399924,0,0,0,0,0,0,0,0,0,0,0,1,0,0,0,0,0,-0.02844238,-0.8994141,-0.548584,0,0,0,0,0,0
3.645036,0.9256665,-0.7092769,0,0,0,0,0,0,0,0,0,0,0,0,0,1,0,0,0.03823249,0.0004997711,-0.07771441,0.004394531,-0.9044189,-0.512207,0,0,0,0,0,0
3.650036,0.8779858,-0.77375,0,0,0,0,0,0,0,0,0,0,0,0,0,1,0,0,0,0,0,0.0760498,-0.9174805,-0.491333,0,0,0,0,0,0
3.655036,0.8222179,-0.8382612,0,0,0,0,0,0,0,0,0,0,0,0,0,1,0,0,0,0,0,0.1177979,-0.8790283,-0.4467773,0,0,0,0,0,0
3.660036,0.7098602,-0.9344487,0,0,0,0,0,0,0,0,0,0,0,0,0,1,0,0,0.05236419,-0.02814287,-0.1234134,0.152832,-0.7945557,-0.5367432,0,0,0,0,0,0
3.665036,0.6453226,-0.973996,0,0,0,0,0,0,0,0,0,0,0,0,0,1,0,0,0,0,0,0.09643555,-0.8685303,-0.5310059,0,0,0,0,0,0
3.670037,0.5890183,-1,0,0,0,0,0,0,0,0,0,0,0,0,0,1,0,0,0,0,0,0.06921387,-0.9920654,-0.4438477,0,0,0,0,0,0
3.675037,0.4662001,-1,0,0,0,0,0,0,0,0,0,0,0,0,0,0,0,0,0,0,0,0.06018066,-1.071411,-0.2762451,0,0,0,0,0,0
3.680037,0.4172379,-1,0,0,0,0,0,0,0,0,0,0,0,0,0,0,0,0,0,0,0,0.04577637,-1.069824,-0.2437744,0,0,0,0,0,0
3.685037,0.3686016,-1,0,0,0,0,0,0,0,0,0,0,0,0,0,0,0,0,0,0,0,0.04492188,-1.096802,-0.2321777,0,0,0,0,0,0
3.690037,0.3042357,-1,0,0,0,0,0,0,0,0,0,0,0,0,0,0,0,0,0,0,0,0.04821777,-0.9362793,-0.2427979,0,0,0,0,0,0
3.695037,0.2882255,-1,0,0,0,0,0,0,0,0,0,0,0,0,0,0,0,0,0,0,0,0.04772949,-0.8685303,-0.3481445,0,0,0,0,0,0
3.700037,0.2802319,-1,0,0,0,0,0,0,0,0,0,0,0,0,0,0,0,0,-0.04472952,0.0362334,-0.0397318,0.04272461,-0.8592529,-0.4360352,0,0,0,0,0,0
3.705037,0.2483314,-1,0,0,0,0,0,0,0,0,0,0,0,0,0,0,0,0,-0.04472952,0.01849153,-0.02049061,0.06164551,-0.897583,-0.5710449,0,0,0,0,0,0
3.710037,0.2483314,-1,0,0,0,0,0,0,0,0,0,0,0,0,0,0,0,0,-0.03414053,0.005305622,-0.006459019,0.06774902,-0.8574219,-0.5224609,0,0,0,0,0,0
3.715038,0.2483314,-1,0,0,0,0,0,0,0,0,0,0,0,0,0,0,0,0,-0.03198535,0.003748283,-0.00224897,0.06274414,-0.862793,-0.494751,0,0,0,0,0,0
3.720038,0.2403741,-1,0,0,0,0,0,0,0,0,0,0,0,0,0,0,0,0,0,0,0,0.04406738,-0.8649902,-0.4503174,0,0,0,0,0,0
3.725038,0.2483314,-1,0,0,0,0,0,0,0,0,0,0,0,0,0,0,0,0,0,0,0,0.05725098,-0.8731689,-0.404541,0,0,0,0,0,0
3.730038,0.2722459,-1,0,0,0,0,0,0,0,0,0,0,0,0,0,0,0,0,-0.002748741,0.01374371,0.04947734,0.112915,-0.8758545,-0.3869629,0,0,0,0,0,0
3.735038,0.2882255,-1,0,0,0,0,0,0,0,0,0,0,0,0,0,0,0,0,0,0,0,0.111084,-0.8679199,-0.3980713,0,0,0,0,0,0
3.740038,0.3122526,-1,0,0,0,0,0,0,0,0,0,0,0,0,0,0,0,0,0,0,0,0.0916748,-0.8673096,-0.4327393,0,0,0,0,0,0
3.745038,0.3605264,-1,0,0,0,0,0,0,0,0,0,0,0,0,0,0,0,0,0,0,0,0.0546875,-0.840332,-0.5140381,0,0,0,0,0,0
3.750038,0.3766855,-1,0,0,0,0,0,0,0,0,0,0,0,0,0,0,0,0,0,0,0,0.02246094,-0.8284912,-0.4707031,0,0,0,0,0,0
3.755038,0.3928797,-1,0,0,0,0,0,0,0,0,0,0,0,0,0,0,0,0,0.0004613585,-0.01384075,0.0288349,-0.05419922,-0.9431152,-0.2772217,0,0,0,0,0,0
3.760039,0.4009901,-1,-0.01268743,0,0,0,0,0,0,0,0,0,0,0,0,0,0,0,0,0,0,-0.08837891,-0.956543,-0.2629395,0,0,0,0,0,0
3.765039,0.4009901,-1,-0.06833278,0.003867893,0,0,0,0,0,0,0,0,0,0,0,0,0,0,0,0,0,-0.02819824,-0.9686279,-0.2722168,0,0,0,0,0,0
3.770039,0.3928797,-1,-0.1983112,0.02203458,0,0,0,0,0,0,0,0,0,0,0,1,0,0,-0.09445674,0.0007496566,-0.01924119,0.03662109,-0.9997559,-0.3237305,0,0,0,0,0,0
3.775039,0.3766855,-1,-0.2721735,0.03086503,0,0,0,0,0,0,0,0,0,0,0,1,0,0,0,0,0,0.07348633,-1.00415,-0.3762207,0,0,0,0,0,0
3.780039,0.3444016,-1,-0.3280605,0.04514594,0,0,0,0,0,0,0,0,0,0,0,1,0,0,0,0,0,0.09423828,-0.932373,-0.4376221,0,0,0,0,0,0
3.785039,0.2324234,-1,-0.4580295,0.07689547,0,0,0,0,0,0,0,0,0,0,0,1,0,0,0,0,0,-0.04821777,-0.8225098,-0.2869873,0,0,0,0,0,0
3.790039,0.2006854,-1,-0.5225546,0.08651566,0,0,0,0,0,0,0,0,0,0,0,1,0,0,0,0,0,0.07824707,-0.8291016,-0.4387207,0,0,0,0,0,0
3.795039,0.1848525,-1,-0.5867665,0.08890402,0,0,0,0,0,0,0,0,0,0,0,1,0,0,0,0,0,0.1934814,-0.8417969,-0.5358887,0,0,0,0,0,0
3.80004,0.1532514,-1,-0.7064662,0.09986695,0,0,0,0,0,0,0,0,0,0,0,1,0,0,0,0,0,0.159668,-0.8126221,-0.5841064,0,0,0,0,0,0
3.80504,0.1296006,-1,-0.7708305,0.101524,0,0,0,0,0,0,0,0,0,0,0,1,0,0,0,0,0,0.1340332,-0.8161621,-0.5915527,0,0,0,0,0,0
3.81004,0.08240198,-1,-0.8717179,0.08832383,0,0,0,0,0,0,0,0,0,0,0,1,0,0,0.0259881,-0.02298947,-0.09870479,0.1102295,-0.8389893,-0.5090332,0,0,0,0,0,0
3.81504,0.06669273,-1,-0.9266269,0.06591071,0,0,0,0,0,0,0,0,0,0,0,1,0,0,0,0,0,0.1395264,-0.9083252,-0.5291748,0,0,0,0,0,0
3.82004,0.05884144,-1,-0.9632658,0.04289848,0,0,0,0,0,0,0,0,0,0,0,1,0,0,0,0,0,0.1481934,-0.9311523,-0.5296631,0,0,0,0,0,0
3.82504,0.04314433,-1,-1,0,0,0,0,0,0,0,0,0,0,0,0,1,0,0,0.03348466,-0.04722837,-0.03398444,0.09790039,-0.8967285,-0.4768066,0,0,0,0,0,0
3.83004,0.035298,-1,-1,-0.01960851,0,0,0,0,0,0,0,0,0,0,0,1,0,0,0,0,0,0.1376953,-0.8846436,-0.5219727,0,0,0,0,0,0
3.83504,0.035298,-1,-1,-0.02745281,0,0,0,0,0,0,0,0,0,0,0,1,0,0,0,0,0,0.1439209,-0.895874,-0.5557861,0,0,0,0,0,0
3.84004,0.035298,-1,-1,-0.035298,0,0,0,0,0,0,0,0,0,0,0,1,0,0,0.02652811,-0.05651642,0.0288349,0.0723877,-0.8178711,-0.4979248,0,0,0,0,0,0
3.845041,0.035298,-1,-1,-0.04314433,0,0,0,0,0,0,0,0,0,0,0,1,0,0,0,0,0,0.105957,-0.7978516,-0.4976807,0,0,0,0,0,0
3.850041,0.035298,-1,-1,-0.05099206,0,0,0,0,0,0,0,0,0,0,0,1,0,0,0,0,0,0.1241455,-0.8137207,-0.4814453,0,0,0,0,0,0
3.855041,0.035298,-1,-1,-0.07454614,0,0,0,0,0,0,0,0,0,0,0,1,0,0,0,0,0,0.09423828,-0.8195801,-0.4018555,0,0,0,0,0,0
3.860041,0.05884144,-1,-1,-0.09026043,0,0,0,0,0,0,0,0,0,0,0,1,0,0,0,0,0,0.08398438,-0.8356934,-0.401123,0,0,0,0,0,0
3.865041,0.06669273,-1,-1,-0.1059862,0,0,0,0,0,0,0,0,0,0,0,1,0,0,0,0,0,0.07141113,-0.8404541,-0.4217529,0,0,0,0,0,0
3.870041,0.09812176,-1,-1,-0.1217254,0,0,0,0,0,0,0,0,0,0,0,1,0,0,0,0,0,0.05615234,-0.8562012,-0.4055176,0,0,0,0,0,0
3.875041,0.113854,-1,-1,-0.1296006,0,0,0,0,0,0,0,0,0,0,0,1,0,0,0,0,0,0.04455566,-0.8674316,-0.4038086,0,0,0,0,0,0
3.880041,0.1296006,-1,-1,-0.1296006,0,0,0,0,0,0,0,0,0,0,0,1,0,0,0,0,0,0.03967285,-0.8800049,-0.4193115,0,0,0,0,0,0
3.885041,0.1769445,-1,-1,-0.1296006,0,0,0,0,0,0,0,0,0,0,0,1,0,0,0,0,0,0.0456543,-0.8795166,-0.4287109,0,0,0,0,0,0
3.890042,0.2086106,-1,-1,-0.1374799,0,0,0,0,0,0,0,0,0,0,0,1,0,0,0,0,0,0.04101563,-0.8822021,-0.4395752,0,0,0,0,0,0
3.895042,0.2483314,-1,-1,-0.1374799,0,0,0,0,0,0,0,0,0,0,0,1,0,0,0,0,0,0.03417969,-0.8962402,-0.4477539,0,0,0,0,0,0
3.900042,0.3122526,-1,-1,-0.1374799,0,0,0,0,0,0,0,0,0,0,0,1,0,0,0,0,0,0.0213623,-0.9244385,-0.447998,0,0,0,0,0,0
3.905042,0.3524597,-1,-1,-0.1374799,0,0,0,0,0,0,0,0,0,0,0,1,0,0,0,0,0,0.0177002,-0.9361572,-0.4487305,0,0,0,0,0,0
3.910042,0.4172379,-1,-1,-0.1374799,0,0,0,0,0,0,0,0,0,0,0,1,0,0,0.01649379,0.003998494,0.03073842,0.002319336,-0.9510498,-0.4746094,0,0,0,0,0,0
3.915042,0.433522,-1,-1,-0.1374799,0,0,0,0,0,0,0,0,0,0,0,1,0,0,0,0,0,-0.005859375,-0.958252,-0.480835,0,0,0,0,0,0
3.920042,0.4580168,-1,-1,-0.1374799,0,0,0,0,0,0,0,0,0,0,0,1,0,0,0,0,0,-0.006591797,-0.9604492,-0.4884033,0,0,0,0,0,0
3.925042,0.4825947,-1,-1,-0.1374799,0,0,0,0,0,0,0,0,0,0,0,1,0,0,0,0,0,-0.004638672,-0.9637451,-0.5041504,0,0,0,0,0,0
3.930043,0.4825947,-1,-1,-0.1374799,0,0,0,0,0,0,0,0,0,0,0,1,0,0,0,0,0,0.004760742,-0.9637451,-0.4962158,0,0,0,0,0,0
3.935043,0.4825947,-1,-1,-0.1374799,0,0,0,0,0,0,0,0,0,0,0,1,0,0,0.003998169,-0.003748283,-0.002998627,0.0246582,-0.9644775,-0.4768066,0,0,0,0,0,0
3.940043,0.4825947,-1,-1,-0.1374799,0,0,0,0,0,0,0,0,0,0,0,1,0,0,0,0,0,0.01403809,-0.9621582,-0.4742432,0,0,0,0,0,0
3.945043,0.4743927,-1,-1,-0.1374799,0,0,0,0,0,0,0,0,0,0,0,1,0,0,0,0,0,0.01916504,-0.9594727,-0.4782715,0,0,0,0,0,0
3.950043,0.4580168,-1,-1,-0.1374799,0,0,0,0,0,0,0,0,0,0,0,1,0,0,-0.008745994,0.003748283,-0.02124027,0.04138184,-0.9494629,-0.4995117,0,0,0,0,0,0
3.955043,0.433522,-1,-1,-0.1374799,0,0,0,0,0,0,0,0,0,0,0,1,0,0,0,0,0,0.05212402,-0.9475098,-0.4963379,0,0,0,0,0,0
3.960043,0.4172379,-1,-1,-0.1374799,0,0,0,0,0,0,0,0,0,0,0,1,0,0,0,0,0,0.05883789,-0.9422607,-0.4907227,0,0,0,0,0,0
3.965043,0.3766855,-1,-1,-0.1374799,0,0,0,0,0,0,0,0,0,0,0,1,0,0,0,0,0,0.0682373,-0.9439697,-0.4841309,0,0,0,0,0,0
3.970043,0.3524597,-1,-1,-0.1374799,0,0,0,0,0,0,0,0,0,0,0,1,0,0,0,0,0,0.06982422,-0.947876,-0.4842529,0,0,0,0,0,0
3.975044,0.3042357,-1,-1,-0.1374799,0,0,0,0,0,0,0,0,0,0,0,1,0,0,-0.004382519,0.00830372,-0.03828938,0.07995605,-0.942627,-0.4796143,0,0,0,0,0,0
3.980044,0.2802319,-1,-1,-0.1374799,0,0,0,0,0,0,0,0,0,0,0,1,0,0,0,0,0,0.08862305,-0.9382324,-0.4737549,0,0,0,0,0,0
3.985044,0.2562958,-1,-1,-0.1374799,0,0,0,0,0,0,0,0,0,0,0,1,0,0,0,0,0,0.09741211,-0.9289551,-0.479248,0,0,0,0,0,0
3.990044,0.2244794,-1,-1,-0.1374799,0,0,0,0,0,0,0,0,0,0,0,1,0,0,0,0,0,0.0982666,-0.9106445,-0.4715576,0,0,0,0,0,0
3.995044,0.2165419,-1,-1,-0.1374799,0,0,0,0,0,0,0,0,0,0,0,1,0,0,0,0,0,0.09887695,-0.9013672,-0.4639893,0,0,0,0,0,0
4.000044,0.2086106,-1,-1,-0.1374799,0,0,0,0,0,0,0,0,0,0,0,1,0,0,-0.01849153,0.007996337,0.004248055,0.08496094,-0.8837891,-0.4660645,0,0,0,0,0,0
4.005044,0.2086106,-1,-1,-0.1374799,0,0,0,0,0,0,0,0,0,0,0,1,0,0,0,0,0,0.07629395,-0.8795166,-0.4709473,0,0,0,0,0,0
4.010044,0.2086106,-1,-1,-0.1374799,0,0,0,0,0,0,0,0,0,0,0,1,0,0,0,0,0,0.06079102,-0.8774414,-0.4766846,0,0,0,0,0,0
4.015044,0.2086106,-1,-1,-0.1374799,0,0,0,0,0,0,0,0,0,0,0,1,0,0,-0.009918332,0.009687673,0.0207593,0.07312012,-0.8815918,-0.46875,0,0,0,0,0,0
4.020044,0.2086106,-1,-1,-0.1374799,0,0,0,0,0,0,0,0,0,0,0,1,0,0,0,0,0,0.0793457,-0.8725586,-0.4516602,0,0,0,0,0,0
4.025044,0.2244794,-1,-1,-0.1453634,0,0,0,0,0,0,0,0,0,0,0,1,0,0,0,0,0,0.07592773,-0.8640137,-0.4393311,0,0,0,0,0,0
4.030045,0.2642672,-1,-1,-0.1611441,0,0,0,0,0,0,0,0,0,0,0,1,0,0,0,0,0,0.06750488,-0.8653564,-0.4361572,0,0,0,0,0,0
4.035045,0.2882255,-1,-1,-0.1690417,0,0,0,0,0,0,0,0,0,0,0,1,0,0,0,0,0,0.0546875,-0.8681641,-0.4390869,0,0,0,0,0,0
4.040045,0.3202776,-1,-1,-0.1769445,0,0,0,0,0,0,0,0,0,0,0,1,0,0,0,0,0,0.03881836,-0.8863525,-0.4367676,0,0,0,0,0,0
4.045045,0.3686016,-1,-1,-0.1848525,0,0,0,0,0,0,0,0,0,0,0,1,0,0,0,0,0,0.04736328,-0.8858643,-0.4405518,0,0,0,0,0,0
4.050045,0.4009901,-1,-1,-0.1927661,0,0,0,0,0,0,0,0,0,0,0,1,0,0,0,0,0,0.05407715,-0.8861084,-0.4346924,0,0,0,0,0,0
4.055045,0.4743927,-1,-1,-0.2006854,0,0,0,0,0,0,0,0,0,0,0,1,0,0,-0.0009995422,0.00224897,0.02673776,0.06774902,-0.8887939,-0.4302979,0,0,0,0,0,0
4.060045,0.5072563,-1,-1,-0.2086106,0,0,0,0,0,0,0,0,0,0,0,1,0,0,0,0,0,0.06555176,-0.887085,-0.4189453,0,0,0,0,0,0
4.065045,0.5568311,-1,-1,-0.2086106,0,0,0,0,0,0,0,0,0,0,0,1,0,0,0,0,0,0.05407715,-0.880127,-0.4208984,0,0,0,0,0,0
4.070045,0.6615523,-0.9662672,-1,-0.2165419,0,0,0,0,0,0,0,0,0,0,0,1,0,0,-0.00674691,-0.0004997711,0.03298489,0.04833984,-0.8747559,-0.4284668,0,0,0,0,0,0
4.075046,0.7092769,-0.9256665,-1,-0.2165419,0,0,0,0,0,0,0,0,0,0,0,1,0,0,0,0,0,0.04467773,-0.8800049,-0.4229736,0,0,0,0,0,0
4.080046,0.765208,-0.877385,-1,-0.2244794,0,0,0,0,0,0,0,0,0,0,0,1,0,0,0,0,0,0.04382324,-0.9000244,-0.4208984,0,0,0,0,0,0
4.085046,0.8444824,-0.7884504,-1,-0.2244794,0,0,0,0,0,0,0,0,0,0,0,1,0,0,-0.008995879,-0.008246223,0.02273958,0.01464844,-0.9064941,-0.4241943,0,0,0,0,0,0
4.090046,0.8755721,-0.7396386,-1,-0.2244794,0,0,0,0,0,0,0,0,0,0,0,1,0,0,0,0,0,0.002197266,-0.9306641,-0.4487305,0,0,0,0,0,0
4.095046,0.8906124,-0.7068986,-1,-0.2244794,0,0,0,0,0,0,0,0,0,0,0,1,0,0,0,0,0,-0.03283691,-0.9084473,-0.4492188,0,0,0,0,0,0
4.100046,0.9221439,-0.6586743,-1,-0.2244794,0,0,0,0,0,0,0,0,0,0,0,1,0,0,-0.009687673,-0.006458449,0.004613177,-0.04492188,-0.9091797,-0.4864502,0,0,0,0,0,0
4.105046,0.9215559,-0.6502753,-1,-0.2244794,0,0,0,0,0,0,0,0,0,0,0,1,0,0,0,0,0,-0.04248047,-0.9130859,-0.4914551,0,0,0,0,0,0
4.110046,0.9215559,-0.6502753,-1,-0.2244794,0,0,0,0,0,0,0,0,0,0,0,1,0,0,0,0,0,-0.02429199,-0.9232178,-0.4758301,0,0,0,0,0,0
4.115047,0.9127472,-0.6496847,-1,-0.2244794,0,0,0,0,0,0,0,0,0,0,0,1,0,0,0,0,0,-0.01074219,-0.8948975,-0.4570313,0,0,0,0,0,0
4.120047,0.8969611,-0.6737174,-0.9859271,-0.2238958,0,0,0,0,0,0,0,0,0,0,0,1,0,0,0,0,0,-0.02404785,-0.8908691,-0.4750977,0,0,0,0,0,0
4.125047,0.8737444,-0.7141563,-0.9584543,-0.2229873,0,0,0,0,0,0,0,0,0,0,0,1,0,0,0,0,0,-0.03222656,-0.887085,-0.4875488,0,0,0,0,0,0
4.130047,0.7707045,-0.8345971,-0.8931144,-0.1894485,0,0,0,0,0,0,0,0,0,0,0,1,0,0,0,0,0,-0.02001953,-0.9069824,-0.4968262,0,0,0,0,0,0
4.135047,0.6990393,-0.8987648,-0.8372164,-0.164385,0,0,0,0,0,0,0,0,0,0,0,1,0,0,0,0,0,-0.002319336,-0.9361572,-0.4902344,0,0,0,0,0,0
4.140047,0.5149953,-1,-0.6970256,-0.09219915,0,0,0,0,0,0,0,0,0,0,0,1,0,0,0.05097665,0.0007496566,-0.07046773,0.0435791,-0.9938965,-0.4353027,0,0,0,0,0,0
4.145047,0.4172379,-1,-0.6037493,-0.04644226,0,0,0,0,0,0,0,0,0,0,0,1,0,0,0,0,0,0.07165527,-1.007935,-0.4108887,0,0,0,0,0,0
4.150047,0.3202776,-1,-0.5017669,-0.01024014,0,0,0,0,0,0,0,0,0,0,0,1,0,0,0,0,0,0.09924316,-1.005371,-0.3894043,0,0,0,0,0,0
4.155047,0.113854,-1,-0.2919519,0.04914042,0,0,0,0,0,0,0,0,0,0,0,1,0,0,-0.001499313,-0.005747368,-0.1077007,0.126709,-1.004761,-0.3365479,0,0,0,0,0,0
4.160048,0.01176485,-1,-0.1773053,0.05437363,0,0,0,0,0,0,0,0,0,0,0,1,0,0,0,0,0,0.1386719,-1.013184,-0.3164063,0,0,0,0,0,0
4.165048,-0.09026043,-1,-0.1013661,0.04445881,0,0,0,0,0,0,0,0,0,0,0,1,0,0,0,0,0,0.1412354,-1.024414,-0.2960205,0,0,0,0,0,0
4.170048,-0.2962267,-1,-0.0001341077,0.00011561,0,0,0,0,0,0,0,0,0,0,0,1,0,0,-0.07996337,-0.002498855,-0.1079506,0.1390381,-1.012329,-0.3768311,0,0,0,0,0,0
4.175048,-0.3847782,-1,0,0,0,0,0,0,0,0,0,0,0,0,0,1,0,0,0,0,0,0.1804199,-0.9571533,-0.4803467,0,0,0,0,0,0
4.180048,-0.4825947,-1,0,0,0,0,0,0,0,0,0,0,0,0,0,1,0,0,0,0,0,0.1987305,-0.923584,-0.5268555,0,0,0,0,0,0
4.185048,-0.6012593,-0.9357346,0,0,0,0,0,0,0,0,0,0,0,0,0,1,0,0,0,0,0,0.1400146,-0.9195557,-0.4926758,0,0,0,0,0,0
4.190048,-0.6407002,-0.9033475,0,0,0,0,0,0,0,0,0,0,0,0,0,1,0,0,0,0,0,0.1088867,-0.8878174,-0.512085,0,0,0,0,0,0
4.195048,-0.6725031,-0.8794271,0,0,0,0,0,0,0,0,0,0,0,0,0,1,0,0,-0.07722092,0.021242,-0.01924275,0.104248,-0.8465576,-0.5330811,0,0,0,0,0,0
4.200048,-0.711675,-0.8389018,0,0,0,0,0,0,0,0,0,0,0,0,0,1,0,0,-0.05572902,0.02424087,0.01499435,0.1021729,-0.791626,-0.5372314,0,0,0,0,0,0
4.205049,-0.7195361,-0.8308456,0,0,0,0,0,0,0,0,0,0,0,0,0,1,0,0,0,0,0,0.09777832,-0.7930908,-0.5217285,0,0,0,0,0,0
4.210049,-0.7352889,-0.8147796,0,0,0,0,0,0,0,0,0,0,0,0,0,1,0,0,0,0,0,0.09155273,-0.7836914,-0.5187988,0,0,0,0,0,0
4.215049,-0.7669296,-0.7828245,0,0,0,0,0,0,0,0,0,0,0,0,0,1,0,0,0,0,0,0.09143066,-0.782959,-0.5366211,0,0,0,0,0,0
4.220049,-0.7742289,-0.766288,0,0,0,0,0,0,0,0,0,0,0,0,0,1,0,0,0,0,0,0.0715332,-0.776123,-0.5177002,0,0,0,0,0,0
4.225049,-0.7981337,-0.7425422,0,0,0,0,0,0,0,0,0,0,0,0,0,1,0,0,0,0,0,0.06652832,-0.7740479,-0.519043,0,0,0,0,0,0
4.230049,-0.8376398,-0.6947249,0,0,0,0,0,0,0,0,0,0,0,0,0,1,0,0,0,0,0,0.08007813,-0.793457,-0.5284424,0,0,0,0,0,0
4.235049,-0.852559,-0.6622202,0,0,0,0,0,0,0,0,0,0,0,0,0,1,0,0,0,0,0,0.07006836,-0.7900391,-0.5239258,0,0,0,0,0,0
4.240049,-0.8681979,-0.6382642,0,0,0,0,0,0,0,0,0,0,0,0,0,1,0,0,0,0,0,0.06469727,-0.7946777,-0.5158691,0,0,0,0,0,0
4.245049,-0.899761,-0.590592,0,0,0,0,0,0,0,0,0,0,0,0,0,1,0,0,0,0,0,0.06933594,-0.8342285,-0.4921875,0,0,0,0,0,0
4.25005,-0.923993,-0.5591546,0,0,0,0,0,0,0,0,0,0,0,0,0,1,0,0,0,0,0,0.06530762,-0.8604736,-0.4622803,0,0,0,0,0,0
4.25505,-0.9389785,-0.5190135,0,0,0,0,0,0,0,0,0,0,0,0,0,1,0,0,0,0,0,0.05065918,-0.8748779,-0.428833,0,0,0,0,0,0
4.26005,-0.9621069,-0.4632367,0,0,0,0,0,0,0,0,0,0,0,0,0,1,0,0,0,0,0,0.0267334,-0.869751,-0.4105225,0,0,0,0,0,0
4.26505,-0.9700872,-0.447428,0,0,0,0,0,0,0,0,0,0,0,0,0,1,0,0,0,0,0,0.02038574,-0.8579102,-0.4217529,0,0,0,0,0,0
4.27005,-0.9785979,-0.4397748,0,0,0,0,0,0,0,0,0,0,0,0,0,1,0,0,-0.002998627,-0.01199451,0.05072676,0.01586914,-0.8568115,-0.4516602,0,0,0,0,0,0
4.27505,-0.9785979,-0.4397748,0,0,0,0,0,0,0,0,0,0,0,0,0,1,0,0,0,0,0,0.01733398,-0.8735352,-0.4598389,0,0,0,0,0,0
4.28005,-0.9785979,-0.4397748,0,0,0,0,0,0,0,0,0,0,0,0,0,1,0,0,0,0,0,0.01501465,-0.8875732,-0.4591064,0,0,0,0,0,0
4.28505,-0.9700872,-0.447428,0,0,0,0,0,0,0,0,0,0,0,0,0,1,0,0,0,0,0,0.02331543,-0.8962402,-0.4555664,0,0,0,0,0,0
4.290051,-0.9626203,-0.4714067,0.003460207,0,0,0,0,0,0,0,0,0,0,0,0,1,0,0,0,0,0,0.0378418,-0.9003906,-0.4603271,0,0,0,0,0,0
4.295051,-0.9306184,-0.5266904,0.04959631,0,0,0,0,0,0,0,0,0,0,0,0,1,0,0,-0.00899649,-0.00899649,0.01591687,0.04272461,-0.9000244,-0.4490967,0,0,0,0,0,0
4.300051,-0.923993,-0.5591546,0.07727797,0,0,0,0,0,0,0,0,0,0,0,0,1,0,0,0,0,0,0.03869629,-0.897583,-0.4483643,0,0,0,0,0,0
4.305051,-0.9080103,-0.5828713,0.1049596,0,0,0,0,0,0,0,0,0,0,0,0,1,0,0,0,0,0,0.03955078,-0.9051514,-0.4483643,0,0,0,0,0,0
4.310051,-0.8757444,-0.6221352,0.1695502,0,0,0,0,0,0,0,0,0,0,0,0,1,0,0,-0.03298489,-0.006247139,0.001249428,0.04577637,-0.9086914,-0.4472656,0,0,0,0,0,0
4.315051,-0.8594302,-0.6376418,0.2064591,0,0,0,0,0,0,0,0,0,0,0,0,1,0,0,0,0,0,0.04931641,-0.9285889,-0.4506836,0,0,0,0,0,0
4.320051,-0.8438239,-0.6615896,0.2433679,0,0,0,0,0,0,0,0,0,0,0,0,1,0,0,0,0,0,0.05065918,-0.9317627,-0.4544678,0,0,0,0,0,0
4.325051,-0.8042005,-0.7091226,0.3357045,-0.009073096,0,0,0,0,0,0,0,0,0,0,0,1,0,0,0,0,0,0.05236816,-0.913208,-0.4638672,0,0,0,0,0,0
4.330051,-0.7722851,-0.7406016,0.3819267,-0.0157821,0,0,0,0,0,0,0,0,0,0,0,1,0,0,0,0,0,0.05175781,-0.9041748,-0.4718018,0,0,0,0,0,0
4.335052,-0.7012812,-0.8122184,0.4745831,-0.03702421,0,0,0,0,0,0,0,0,0,0,0,1,0,0,-0.02624012,0.001249529,0.007747083,0.06274414,-0.8933105,-0.4758301,0,0,0,0,0,0
4.340052,-0.6700147,-0.8444564,0.5302538,-0.05198567,0,0,0,0,0,0,0,0,0,0,0,1,0,0,0,0,0,0.06176758,-0.8981934,-0.4714355,0,0,0,0,0,0
4.345052,-0.6298854,-0.8675779,0.5767347,-0.06722675,0,0,0,0,0,0,0,0,0,0,0,1,0,0,0,0,0,0.06945801,-0.8924561,-0.4725342,0,0,0,0,0,0
4.350052,-0.5349331,-0.9311798,0.6794739,-0.1138578,0,0,0,0,0,0,0,0,0,0,0,1,0,0,-0.006996796,0.01049519,0.01499313,0.07299805,-0.8818359,-0.4830322,0,0,0,0,0,0
4.355052,-0.4959782,-0.9641817,0.7262768,-0.1378064,0,0,0,0,0,0,0,0,0,0,0,1,0,0,0,0,0,0.06481934,-0.8791504,-0.4787598,0,0,0,0,0,0
4.360052,-0.4560802,-0.9795809,0.7730781,-0.1621578,0,0,0,0,0,0,0,0,0,0,0,1,0,0,0,0,0,0.06152344,-0.8839111,-0.4768066,0,0,0,0,0,0
4.365052,-0.3766855,-1,0.8578613,-0.219274,0,0,0,0,0,0,0,0,0,0,0,1,0,0,0.01324501,0.01399473,0.01499435,0.06311035,-0.8917236,-0.4702148,0,0,0,0,0,0
4.370052,-0.336352,-1,0.8863676,-0.2438478,0,0,0,0,0,0,0,0,0,0,0,1,0,0,0,0,0,0.06359863,-0.9039307,-0.4709473,0,0,0,0,0,0
4.375052,-0.2962267,-1,0.9331066,-0.2693906,0,0,0,0,0,0,0,0,0,0,0,1,0,0,0,0,0,0.06030273,-0.9108887,-0.4672852,0,0,0,0,0,0
4.380053,-0.2244794,-1,0.998794,-0.3118764,0,0,0,0,0,0,0,0,0,0,0,1,0,0,0.02375996,0.007843095,0.01914638,0.02526855,-0.9411621,-0.4431152,0,0,0,0,0,0
4.385053,-0.1848525,-1,1,-0.3279207,0,0,0,0,0,0,0,0,0,0,0,1,0,0,0,0,0,0.006469727,-0.9412842,-0.4197998,0,0,0,0,0,0
4.390053,-0.1532514,-1,1,-0.3359554,0,0,0,0,0,0,0,0,0,0,0,1,0,0,0,0,0,0.04211426,-0.9442139,-0.4421387,0,0,0,0,0,0
4.395053,-0.08240198,-1,1,-0.3520505,0,0,0,0,0,0,0,0,0,0,0,1,0,0,-0.01449336,-0.007246681,0.01124485,0.07946777,-0.9456787,-0.4676514,0,0,0,0,0,0
4.400053,-0.04314433,-1,1,-0.360111,0,0,0,0,0,0,0,0,0,0,0,1,0,0,0,0,0,0.0736084,-0.9373779,-0.4813232,0,0,0,0,0,0
4.405053,-0.01176485,-1,1,-0.360111,0,0,0,0,0,0,0,0,0,0,0,1,0,0,0,0,0,0.06933594,-0.9283447,-0.494873,0,0,0,0,0,0
4.410053,0.05884144,-1,1,-0.3681803,0,0,0,0,0,0,0,0,0,0,0,1,0,0,0,0,0,0.06188965,-0.8950195,-0.4974365,0,0,0,0,0,0
4.415053,0.09026043,-1,1,-0.3681803,0,0,0,0,0,0,0,0,0,0,0,1,0,0,0,0,0,0.06518555,-0.8869629,-0.5029297,0,0,0,0,0,0
4.420053,0.1611441,-1,1,-0.3762585,0,0,0,0,0,0,0,0,0,0,0,1,0,0,-0.01474325,-0.01949107,0.01924119,0.04956055,-0.8990479,-0.4923096,0,0,0,0,0,0
4.425054,0.1927661,-1,1,-0.3762585,0,0,0,0,0,0,0,0,0,0,0,1,0,0,0,0,0,0.04736328,-0.8994141,-0.487793,0,0,0,0,0,0
4.430054,0.2324234,-1,1,-0.3843456,0,0,0,0,0,0,0,0,0,0,0,1,0,0,0,0,0,0.05212402,-0.8995361,-0.4866943,0,0,0,0,0,0
4.435054,0.3042357,-1,1,-0.3843456,0,0,0,0,0,0,0,0,0,0,0,1,0,0,0,0,0,0.05419922,-0.8929443,-0.4882813,0,0,0,0,0,0
4.440054,0.3444016,-1,1,-0.3843456,0,0,0,0,0,0,0,0,0,0,0,1,0,0,0,0,0,0.04772949,-0.8903809,-0.4835205,0,0,0,0,0,0
4.445054,0.3847782,-1,1,-0.3843456,0,0,0,0,0,0,0,0,0,0,0,1,0,0,0,0,0,0.0480957,-0.8806152,-0.4897461,0,0,0,0,0,0
4.450054,0.4743927,-1,1,-0.3924417,0,0,0,0,0,0,0,0,0,0,0,1,0,0,0,0,0,0.05090332,-0.8768311,-0.4833984,0,0,0,0,0,0
4.455054,0.5154955,-1,1,-0.3924417,0,0,0,0,0,0,0,0,0,0,0,1,0,0,0,0,0,0.04174805,-0.878418,-0.4765625,0,0,0,0,0,0
4.460054,0.6056846,-1,1,-0.3924417,0,0,0,0,0,0,0,0,0,0,0,1,0,0,-0.006497554,-0.01474445,0.01799322,0.04187012,-0.8861084,-0.4812012,0,0,0,0,0,0
4.465055,0.6458775,-0.982857,1,-0.3924417,0,0,0,0,0,0,0,0,0,0,0,1,0,0,0,0,0,0.03857422,-0.8880615,-0.4830322,0,0,0,0,0,0
4.470055,0.6778142,-0.9585657,1,-0.3924417,0,0,0,0,0,0,0,0,0,0,0,1,0,0,0,0,0,0.04577637,-0.8897705,-0.4772949,0,0,0,0,0,0
4.475055,0.7578744,-0.8942115,1,-0.3924417,0,0,0,0,0,0,0,0,0,0,0,1,0,0,0,0,0,0.05175781,-0.8891602,-0.4805908,0,0,0,0,0,0
4.480055,0.7810984,-0.8612111,1,-0.3924417,0,0,0,0,0,0,0,0,0,0,0,1,0,0,0,0,0,0.05053711,-0.8913574,-0.4766846,0,0,0,0,0,0
4.485055,0.8130026,-0.8290224,1,-0.3924417,0,0,0,0,0,0,0,0,0,0,0,1,0,0,0,0,0,0.04248047,-0.8933105,-0.4785156,0,0,0,0,0,0
4.490055,0.8668616,-0.7390295,0.9943026,-0.4000978,0,0,0,0,0,0,0,0,0,0,0,1,0,0,0,0,0,0.04943848,-0.9000244,-0.4779053,0,0,0,0,0,0
4.495055,0.8906124,-0.7068986,0.9943026,-0.4000978,0,0,0,0,0,0,0,0,0,0,0,1,0,0,0,0,0,0.04711914,-0.8928223,-0.4797363,0,0,0,0,0,0
4.500055,0.9292061,-0.6340935,0.9943026,-0.4000978,0,0,0,0,0,0,0,0,0,0,0,1,0,0,0.007996988,0.002748965,0.03748589,0.02392578,-0.8775635,-0.4865723,0,0,0,0,0,0
4.505055,0.9451655,-0.6101702,0.9943026,-0.4000978,0,0,0,0,0,0,0,0,0,0,0,1,0,0,0,0,0,0.005371094,-0.8756104,-0.4945068,0,0,0,0,0,0
4.510056,0.9517779,-0.5774385,0.9943026,-0.4000978,0,0,0,0,0,0,0,0,0,0,0,1,0,0,0,0,0,-0.002929688,-0.8762207,-0.5057373,0,0,0,0,0,0
4.515056,0.9590133,-0.5531238,0.9762193,-0.3991828,0,0,0,0,0,0,0,0,0,0,0,1,0,0,0.0232986,0.0006920377,0.02260657,-0.02539063,-0.8658447,-0.4953613,0,0,0,0,0,0
4.520056,0.9590133,-0.5531238,0.9491243,-0.3977658,0,0,0,0,0,0,0,0,0,0,0,1,0,0,0,0,0,-0.02893066,-0.8674316,-0.4918213,0,0,0,0,0,0
4.525056,0.9584652,-0.5448537,0.9215698,-0.3882358,0,0,0,0,0,0,0,0,0,0,0,1,0,0,0,0,0,-0.01281738,-0.8804932,-0.4746094,0,0,0,0,0,0
4.530056,0.9590133,-0.5531238,0.8193306,-0.3346561,0,0,0,0,0,0,0,0,0,0,0,1,0,0,0,0,0,-0.02697754,-0.8648682,-0.5025635,0,0,0,0,0,0
4.535056,0.9428936,-0.5768758,0.7625432,-0.2921185,0,0,0,0,0,0,0,0,0,0,0,1,0,0,0,0,0,-0.03759766,-0.8430176,-0.5351563,0,0,0,0,0,0
4.540056,0.8725189,-0.6972183,0.6221073,-0.2146452,0,0,0,0,0,0,0,0,0,0,0,1,0,0,0.05172631,-0.02124027,-0.05847322,-0.07495117,-0.7893066,-0.5928955,0,0,0,0,0,0
4.545056,0.8092968,-0.7774033,0.5378203,-0.1722431,0,0,0,0,0,0,0,0,0,0,0,1,0,0,0,0,0,-0.08044434,-0.8031006,-0.6085205,0,0,0,0,0,0
4.550056,0.7044476,-0.855685,0.4345562,-0.1227373,0,0,0,0,0,0,0,0,0,0,0,1,0,0,0,0,0,-0.06176758,-0.8048096,-0.5827637,0,0,0,0,0,0
4.555057,0.4009901,-1,0.2372745,-0.0453221,0,0,0,0,0,0,0,0,0,0,0,1,0,0,0.1274416,-0.05072676,-0.1481821,-0.007446289,-0.8620605,-0.4956055,0,0,0,0,0,0
4.560057,0.2086106,-1,0.1258881,-0.02130413,0,0,0,0,0,0,0,0,0,0,0,1,0,0,0,0,0,0.1038818,-1.005859,-0.4001465,0,0,0,0,0,0
4.565057,0.003921574,-1,0.01520453,-0.002595896,0,0,0,0,0,0,0,0,0,0,0,1,0,0,0,0,0,0.190918,-1.097778,-0.3409424,0,0,0,0,0,0
4.570057,-0.4565729,-0.9885796,0,0,0,0,0,0,0,0,0,0,0,0,0,1,0,0,0.05672402,-0.07121738,-0.1376869,0.4711914,-1.206787,-0.3304443,0,0,0,0,0,0
4.575057,-0.6305027,-0.876359,0,0,0,0,0,0,0,0,0,0,0,0,0,1,0,0,0,0,0,0.2954102,-1.148071,-0.3577881,0,0,0,0,0,0
4.580057,-0.7577157,-0.7735841,0,0,0,0,0,0,0,0,0,0,0,0,0,0,0,0,0,0,0,0.1680908,-1.095581,-0.4121094,0,0,0,0,0,0
4.585057,-0.8531865,-0.6706443,0,0,0,0,0,0,0,0,0,0,0,0,0,0,0,0,0.008246895,0.006497554,-0.04498306,0.06811523,-1.129395,-0.456543,0,0,0,0,0,0
4.590057,-0.8606791,-0.6544335,0,0,0,0,0,0,0,0,0,0,0,0,0,0,0,0,0,0,0,-0.01245117,-0.9849854,-0.4946289,0,0,0,0,0,0
4.595057,-0.8681979,-0.6382642,0,0,0,0,0,0,0,0,0,0,0,0,0,0,0,0,0,0,0,0.04040527,-0.9136963,-0.3837891,0,0,0,0,0,0
4.600058,-0.9174469,-0.5917731,0,0,0,0,0,0,0,0,0,0,0,0,0,0,0,0,-0.002767907,0.07035096,0.01591546,0.09191895,-0.8364258,-0.4171143,0,0,0,0,0,0
4.605058,-0.9317433,-0.5431865,0,0,0,0,0,0,0,0,0,0,0,0,0,0,0,0,0,0,0,0.03967285,-0.8304443,-0.4505615,0,0,0,0,0,0
4.610058,-0.956296,-0.5118763,0,0,0,0,0,0,0,0,0,0,0,0,0,0,0,0,0,0,0,0.01757813,-0.8447266,-0.4884033,0,0,0,0,0,0
4.615058,-0.9710904,-0.4637452,0,0,0,0,0,0,0,0,0,0,0,0,0,0,0,0,0,0,0,0.05358887,-0.8961182,-0.5452881,0,0,0,0,0,0
4.620058,-0.9785979,-0.4397748,0,0,0,0,0,0,0,0,0,0,0,0,0,0,0,0,0,0,0,0.02355957,-0.8974609,-0.5184326,0,0,0,0,0,0
4.625058,-0.9866543,-0.423984,0,0,0,0,0,0,0,0,0,0,0,0,0,0,0,0,0,0,0,0.01477051,-0.9075928,-0.5047607,0,0,0,0,0,0
4.630058,-1,-0.3605264,0,0,0,0,0,0,0,0,0,0,0,0,0,0,0,0,0,0,0,0.04016113,-0.8336182,-0.4952393,0,0,0,0,0,0
4.635058,-1,-0.3042357,0,0,0,0,0,0,0,0,0,0,0,0,0,0,0,0,0,0,0,0.03869629,-0.7772217,-0.4854736,0,0,0,0,0,0
4.640059,-1,-0.2006854,0,0,0,0,0,0,0,0,0,0,0,0,0,0,0,0,0.001614612,0.02029798,0.06481514,0.06188965,-0.7154541,-0.5222168,0,0,0,0,0,0
4.645059,-1,-0.1611441,0,0,0,0,0,0,0,0,0,0,0,0,0,0,0,0,0,0,0,0.06567383,-0.7011719,-0.5426025,0,0,0,0,0,0
4.650059,-1,-0.113854,0,0,0,0,0,0,0,0,0,0,0,0,0,0,0,0,0,0,0,0.03991699,-0.6870117,-0.5440674,0,0,0,0,0,0
4.655059,-1,-0.06669273,0,0,0,0,0,0,0,0,0,0,0,0,0,0,0,0,0.08696017,-0.00449794,0.05447505,0.01916504,-0.71875,-0.5379639,0,0,0,0,0,0
4.660059,-1,-0.035298,0,0,0,0,0,0,0,0,0,0,0,0,0,0,0,0,0,0,0,0.02746582,-0.7919922,-0.5065918,0,0,0,0,0,0
4.665059,-1,0.035298,0,0,0,0,0,0,0,0,0,0,0,0,0,0,0,0,0.09995423,-0.01399359,0.03473409,-0.01391602,-0.9078369,-0.3295898,0,0,0,0,0,0
4.670059,-1,0.07454614,0,0,0,0,0,0,0,0,0,0,0,0,0,0,0,0,0,0,0,-0.04455566,-0.9702148,-0.2701416,0,0,0,0,0,0
4.675059,-1,0.1059862,0,0,0,0,0,0,0,0,0,0,0,0,0,0,0,0,0,0,0,-0.0567627,-0.9902344,-0.2608643,0,0,0,0,0,0
4.680059,-1,0.1927661,0,0,0,0,0,0,0,0,0,0,0,0,0,0,0,0,0.0124953,0.0254904,0.03848551,-0.03393555,-0.9359131,-0.2561035,0,0,0,0,0,0
4.68506,-1,0.2882255,0,0,0,0,0,0,0,0,0,0,0,0,0,1,0,0,-0.03648329,0.03698306,0.0172421,0.04833984,-0.8370361,-0.3465576,0,0,0,0,0,0
4.69006,-1,0.2962267,0,0,0,0,0,0,0,0,0,0,0,0,0,1,0,0,0,0,0,0.0402832,-0.793335,-0.4016113,0,0,0,0,0,0
4.69506,-1,0.3042357,0,0,0,0,0,0,0,0,0,0,0,0,0,1,0,0,0,0,0,0.04223633,-0.8319092,-0.4293213,0,0,0,0,0,0
4.70006,-1,0.3042357,0,0,0,0,0,0,0,0,0,0,0,0,0,1,0,0,0,0,0,0.03442383,-0.8996582,-0.2879639,0,0,0,0,0,0
4.70506,-1,0.3122526,-0.02448199,0.01654189,0,0,0,0,0,0,0,0,0,0,0,1,0,0,0,0,0,-0.06079102,-0.8848877,-0.2828369,0,0,0,0,0,0
4.71006,-1,0.3122526,-0.05207838,0.03512263,0,0,0,0,0,0,0,0,0,0,0,1,0,0,0,0,0,-0.03833008,-1.004272,-0.3388672,0,0,0,0,0,0
4.71506,-1,0.3122526,-0.1197162,0.08611164,0,0,0,0,0,0,0,0,0,0,0,1,0,0,0,0,0,0.1101074,-1.017456,-0.4367676,0,0,0,0,0,0
4.72006,-1,0.3042357,-0.149212,0.1113169,0,0,0,0,0,0,0,0,0,0,0,1,0,0,0,0,0,0.1501465,-0.9645996,-0.5493164,0,0,0,0,0,0
4.72506,-1,0.3042357,-0.1899552,0.1524993,0,0,0,0,0,0,0,0,0,0,0,1,0,0,-0.07371624,-0.01849153,-0.03048604,0.1643066,-0.8988037,-0.6188965,0,0,0,0,0,0
4.730061,-1,0.3042357,-0.2013773,0.1682741,0,0,0,0,0,0,0,0,0,0,0,1,0,0,0,0,0,0.1296387,-0.8886719,-0.5981445,0,0,0,0,0,0
4.735061,-1,0.3122526,-0.2186673,0.1789096,0,0,0,0,0,0,0,0,0,0,0,1,0,0,0,0,0,0.09326172,-0.8874512,-0.5723877,0,0,0,0,0,0
4.740061,-1,0.3042357,-0.2377221,0.1966343,0,0,0,0,0,0,0,0,0,0,0,1,0,0,-0.03644732,-0.04475177,-0.004844264,0.05847168,-0.8464355,-0.543457,0,0,0,0,0,0
4.745061,-1,0.2962267,-0.2377221,0.1966343,0,0,0,0,0,0,0,0,0,0,0,1,0,0,0,0,0,0.05639648,-0.8266602,-0.5559082,0,0,0,0,0,0
4.750061,-1,0.2802319,-0.2377221,0.1966343,0,0,0,0,0,0,0,0,0,0,0,1,0,0,0.01522483,-0.04821196,0.01361008,0.09570313,-0.8259277,-0.5876465,0,0,0,0,0,0
4.755061,-1,0.2642672,-0.2377221,0.1966343,0,0,0,0,0,0,0,0,0,0,0,1,0,0,0,0,0,0.1080322,-0.8314209,-0.5621338,0,0,0,0,0,0
4.760061,-1,0.2562958,-0.2377221,0.1966343,0,0,0,0,0,0,0,0,0,0,0,1,0,0,0,0,0,0.104248,-0.8256836,-0.5375977,0,0,0,0,0,0
4.765061,-1,0.2244794,-0.2067815,0.1897857,0,0,0,0,0,0,0,0,0,0,0,1,0,0,0,0,0,0.1064453,-0.8109131,-0.5480957,0,0,0,0,0,0
4.770061,-1,0.2086106,-0.1805497,0.1697706,0,0,0,0,0,0,0,0,0,0,0,1,0,0,0,0,0,0.102417,-0.8048096,-0.5477295,0,0,0,0,0,0
4.775062,-1,0.1690417,-0.1105106,0.1105106,0,0,0,0,0,0,0,0,0,0,0,1,0,0,0.08920915,-0.05597436,0.01799176,0.1074219,-0.7895508,-0.5322266,0,0,0,0,0,0
4.780062,-1,0.1453634,-0.06738002,0.07066685,0,0,0,0,0,0,0,0,0,0,0,1,0,0,0,0,0,0.1260986,-0.7839355,-0.5507813,0,0,0,0,0,0
4.785062,-1,0.1217254,-0.02219683,0.02362888,0,0,0,0,0,0,0,0,0,0,0,1,0,0,0,0,0,0.1223145,-0.7733154,-0.5386963,0,0,0,0,0,0
4.790062,-1,0.07454614,0,0,0,0,0,0,0,0,0,0,0,0,0,1,0,0,0.1543244,-0.03529393,-0.004382906,0.05444336,-0.7597656,-0.4306641,0,0,0,0,0,0
4.795062,-1,0.04314433,0,0,0,0,0,0,0,0,0,0,0,0,0,1,0,0,0,0,0,-0.006958008,-0.8103027,-0.3519287,0,0,0,0,0,0
4.800062,-1,0.01176485,0,0,0,0,0,0,0,0,0,0,0,0,0,1,0,0,0,0,0,0.01098633,-0.8521729,-0.3509521,0,0,0,0,0,0
4.805062,-1,-0.05884144,0,0,0,0,0,0,0,0,0,0,0,0,0,1,0,0,0,0,0,0.0760498,-0.96521,-0.3475342,0,0,0,0,0,0
4.810062,-1,-0.08240198,0,0,0,0,0,0,0,0,0,0,0,0,0,1,0,0,0,0,0,0.1169434,-0.9486084,-0.4044189,0,0,0,0,0,0
4.815063,-1,-0.1532514,0.06530569,-0.04789084,0,0,0,0,0,0,0,0,0,0,0,0,0,0,0.1859148,0,0.007496567,0.03894043,-0.9532471,-0.4141846,0,0,0,0,0,0
4.820063,-1,-0.1927661,0.1470574,-0.105041,0,0,0,0,0,0,0,0,0,0,0,0,0,0,0,0,0,0.01037598,-1.012085,-0.3797607,0,0,0,0,0,0
4.825063,-1,-0.2403741,0.2213664,-0.1597201,0,0,0,0,0,0,0,0,0,0,0,0,0,0,0,0,0,-0.0006103516,-1.078735,-0.3406982,0,0,0,0,0,0
4.830063,-1,-0.3202776,0.3851091,-0.2645532,0,0,0,0,0,0,0,0,0,0,0,0,0,0,0.1239432,0.02348924,0.04422975,-0.0003662109,-1.108276,-0.2258301,0,0,0,0,0,0
4.835063,-1,-0.3605264,0.4669476,-0.3124687,0,0,0,0,0,0,0,0,0,0,0,0,0,0,0,0,0,0.005004883,-1.134277,-0.2116699,0,0,0,0,0,0
4.840063,-1,-0.3843456,0.5655171,-0.3539042,0,0,0,0,0,0,0,0,0,0,0,0,0,0,0,0,0,0.02624512,-1.158203,-0.2307129,0,0,0,0,0,0
4.845063,-0.9861843,-0.4158609,0.7279308,-0.415416,0,0,0,0,0,0,0,0,0,0,0,0,0,0,0,0,0,0.05249023,-1.140137,-0.270752,0,0,0,0,0,0
4.850063,-0.9866543,-0.423984,0.8001232,-0.4367822,0,0,0,0,0,0,0,0,0,0,0,0,0,0,0,0,0,0.06555176,-1.126099,-0.3137207,0,0,0,0,0,0
4.855063,-0.9866543,-0.423984,0.9621069,-0.4632367,0,0,0,0,0,0,0,0,0,0,0,1,0,0,-0.1064512,0.02673776,0.09995423,-0.004516602,-1.152588,-0.3405762,0,0,0,0,0,0
