Timestamp, Left Stick X, Left Stick Y, Right Stick X, Right Stick Y, D-Pad Up, D-Pad Right,D-Pad Down, D-Pad Left, Button North, Button East, Button South, Button West, L1, R1, L2, R2, L3, R3,Gyroscope X, Gyroscope Y, Gyroscope Z, Accelerometer X, Accelerometer Y, Accelerometer Z,Touch 1, Touch 2, Touch 1 Pos X, Touch 1 Pos Y, Touch 2 Pos X, Touch 2 Pos Y
0,0,0,0,0,0,0,0,0,0,0,0,0,0,0,0,0,0,0,0.01649245,0.01999084,0.05947276,-0.09069824,-1.114868,-0.1730957,0,0,0,0,0,0
0.003333333,0,0,0,0,0,0,0,0,0,0,0,0,0,0,0,0,0,0,0,0,0,0.1029053,-1.775635,-0.04089355,0,0,0,0,0,0
0.006666667,0,0,0,0,0,0,0,0,0,0,0,0,0,0,0,1,0,0,-0.110726,0.008535132,0.1607834,1.235718,-2.159912,0.7584229,0,0,0,0,0,0
0.01,0,0,0,0,0,0,0,0,0,0,0,0,0,0,0,1,0,0,-0.4335515,0.09545628,0.1249428,-0.262085,-0.2749023,-0.4289551,0,0,0,0,0,0
0.01333333,0,0,0,0,0,0,0,0,0,0,0,0,0,0,0,1,0,0,0,0,0,-0.262085,-0.2749023,-0.4289551,0,0,0,0,0,0
0.01666667,0,0,0,0,0,0,0,0,0,0,0,0,0,0,0,1,0,0,0,0,0,-0.2408447,-0.2491455,-0.482666,0,0,0,0,0,0
0.02,0,0,0,0,0,0,0,0,0,0,0,0,0,0,0,1,0,0,0,0,0,-0.4803467,-0.697998,0.03588867,0,0,0,0,0,0
0.02333334,-0.0003061539,0.003980001,0,0,0,0,0,0,0,0,0,0,0,0,0,1,0,0,0,0,0,-0.2823486,-0.6816406,-0.3282471,0,0,0,0,0,0
0.02666667,-0.005153871,0.05050793,0,0,0,0,0,0,0,0,0,0,0,0,0,1,0,0,0,0,0,0.0201416,-0.6864014,-0.7381592,0,0,0,0,0,0
0.03,-0.0100151,0.0786901,0,0,0,0,0,0,0,0,0,0,0,0,0,1,0,0,0,0,0,0.0625,-0.6257324,-0.8106689,0,0,0,0,0,0
0.03333334,-0.01078504,0.08782104,0,0,0,0,0,0,0,0,0,0,0,0,0,1,0,0,0,0,0,0.01477051,-0.5997314,-0.8522949,0,0,0,0,0,0
0.03666667,-0.01078504,0.08782104,0,0,0,0,0,0,0,0,0,0,0,0,0,1,0,0,0,0,0,0.1586914,-0.7276611,-1.239624,0,0,0,0,0,0
0.04,-0.01078504,0.08782104,0,0,0,0,0,0,0,0,0,0,0,0,0,1,0,0,0,0,0,0.2073975,-0.7788086,-1.220215,0,0,0,0,0,0
0.04333334,-0.01078504,0.08782104,0,0,0,0,0,0,0,0,0,0,0,0,0,1,0,0,0,0,0,-0.0009765625,-0.7142334,-0.677002,0,0,0,0,0,0
0.04666667,-0.009642811,0.05249975,0,0,0,0,0,0,0,0,0,0,0,0,0,1,0,0,0,0,0,-0.1462402,-0.774292,-0.3775635,0,0,0,0,0,0
0.05,-0.001841401,0.007979404,0,0,0,0,0,0,0,0,0,0,0,0,0,1,0,0,0,0,0,-0.1021729,-0.9490967,-0.4416504,0,0,0,0,0,0
0.05333334,0,0,0,0,0,0,0,0,0,0,0,0,0,0,0,1,0,0,0,0,0,-0.03710938,-1.025879,-0.4743652,0,0,0,0,0,0
0.05666667,0,0,0,0,0,0,0,0,0,0,0,0,0,0,0,1,0,0,0,0,0,-0.03747559,-0.9729004,-0.3304443,0,0,0,0,0,0
0.06000001,0,0,0,0,0,0,0,0,0,0,0,0,0,0,0,1,0,0,0,0,0,-0.001953125,-1.016357,-0.298584,0,0,0,0,0,0
0.06333334,0,0,0,0,0,0,0,0,0,0,0,0,0,0,0,1,0,0,0,0,0,0.02453613,-1.086182,-0.3608398,0,0,0,0,0,0
0.06666667,0,0,0,0,0,0,0,0,0,0,0,0,0,0,0,1,0,0,0.01624256,-0.1144476,0.01399359,0.01916504,-1.069336,-0.3995361,0,0,0,0,0,0
0.07,0,0,0,0,0,0,0,0,0,0,0,0,0,0,0,1,0,0,0.01549543,-0.1097176,0.02649218,-0.0078125,-0.9993896,-0.3327637,0,0,0,0,0,0
0.07333333,0,0,0,0,0,0,0,0,0,0,0,0,0,0,0,1,0,0,0,0,0,-0.0078125,-0.9993896,-0.3327637,0,0,0,0,0,0
0.07666666,0,0,0,0,0,0,0,0,0,0,0,0,0,0,0,1,0,0,0,0,0,-0.03759766,-0.946167,-0.3217773,0,0,0,0,0,0
0.07999999,-0.02565748,-0.005370171,0,0,0,0,0,0,0,0,0,0,0,0,0,1,0,0,0,0,0,-0.06738281,-0.9395752,-0.4174805,0,0,0,0,0,0
0.08333332,-0.1088355,-0.02319446,0,0,0,0,0,0,0,0,0,0,0,0,0,1,0,0,0,0,0,-0.07434082,-0.9295654,-0.3925781,0,0,0,0,0,0
0.08666665,-0.1928972,-0.046393,0,0,0,0,0,0,0,0,0,0,0,0,0,1,0,0,0,0,0,-0.03405762,-0.873291,-0.331543,0,0,0,0,0,0
0.08999998,-0.2775127,-0.07724581,0,0,0,0,0,0,0,0,0,0,0,0,0,1,0,0,0,0,0,-0.0002441406,-0.8261719,-0.2834473,0,0,0,0,0,0
0.09333331,-0.3707245,-0.1109005,0,0,0,0,0,0,0,0,0,0,0,0,0,1,0,0,0,0,0,-0.001220703,-0.8155518,-0.3182373,0,0,0,0,0,0
0.09666664,-0.4546904,-0.1448273,0,0,0,0,0,0,0,0,0,0,0,0,0,1,0,0,0,0,0,-0.01245117,-0.8253174,-0.3717041,0,0,0,0,0,0
0.09999997,-0.5481308,-0.1874254,0,0,0,0,0,0,0,0,0,0,0,0,0,1,0,0,0,0,0,-0.01220703,-0.8027344,-0.3431396,0,0,0,0,0,0
0.1033333,-0.6227157,-0.2221383,0,0,0,0,0,0,0,0,0,0,0,0,0,0,0,0,0,0,0,-0.0008544922,-0.7791748,-0.2996826,0,0,0,0,0,0
0.1066666,-0.6977657,-0.2649271,0,0,0,0,0,0,0,0,0,0,0,0,0,0,0,0,0,0,0,-0.00402832,-0.8083496,-0.3221436,0,0,0,0,0,0
0.11,-0.7642245,-0.3155753,0,0,0,0,0,0,0,0,0,0,0,0,0,0,0,0,0,0,0,-0.01428223,-0.8708496,-0.3649902,0,0,0,0,0,0
0.1133333,-0.8215318,-0.3664109,0,0,0,0,0,0,0,0,0,0,0,0,0,0,0,0,0,0,0,0.001831055,-0.9257813,-0.4147949,0,0,0,0,0,0
0.1166666,-0.8786947,-0.4178682,0,0,0,0,0,0,0,0,0,0,0,0,0,0,0,0,0.117946,0.01449336,-0.03998169,-0.07092285,-0.9321289,-0.3117676,0,0,0,0,0,0
0.12,-0.9183595,-0.4769163,0,0,0,0,0,0,0,0,0,0,0,0,0,0,0,0,0.1161968,0.01974096,-0.03748283,-0.1101074,-0.965332,-0.2255859,0,0,0,0,0,0
0.1233333,-0.9479036,-0.5195622,0,0,0,0,0,0,0,0,0,0,0,0,0,0,0,0,0.09549278,0.02698709,-0.03482949,-0.07495117,-1.032959,-0.1575928,0,0,0,0,0,0
0.1266666,-0.9479036,-0.5195622,0,0,0,0,0,0,0,0,0,0,0,0,0,0,0,0,0,0,0,-0.07495117,-1.032959,-0.1575928,0,0,0,0,0,0
0.13,-0.9490002,-0.5360461,0,0,0,0,0,0,0,0,0,0,0,0,0,0,0,0,0,0,0,-0.0006103516,-1.083374,-0.04736328,0,0,0,0,0,0
0.1333333,-0.9495519,-0.5443038,0,0,0,0,0,0,0,0,0,0,0,0,0,0,0,0,0,0,0,0.01330566,-1.122559,-0.02539063,0,0,0,0,0,0
0.1366666,-0.933445,-0.5680113,0,0,0,0,0,0,0,0,0,0,0,0,0,0,0,0,0,0,0,0.04089355,-1.119751,-0.06408691,0,0,0,0,0,0
0.1399999,-0.9257216,-0.5840389,0,0,0,0,0,0,0,0,0,0,0,0,0,0,0,0,0,0,0,0.06518555,-1.207031,-0.1571045,0,0,0,0,0,0
0.1433333,-0.9174469,-0.5917731,0,0,0,0,0,0,0,0,0,0,0,0,0,1,0,0,0,0,0,0.09692383,-1.284058,-0.1878662,0,0,0,0,0,0
0.1466666,-0.9097829,-0.6078463,0,0,0,0,0,0,0,0,0,0,0,0,0,1,0,0,0,0,0,0.09643555,-1.260376,-0.1646729,0,0,0,0,0,0
0.1499999,-0.9009549,-0.6072515,0,0,0,0,0,0,0,0,0,0,0,0,0,1,0,0,0,0,0,0.02319336,-1.204834,-0.1697998,0,0,0,0,0,0
0.1533333,-0.9015527,-0.6155977,0,0,0,0,0,0,0,0,0,0,0,0,0,1,0,0,0,0,0,-0.04797363,-1.202026,0.2269287,0,0,0,0,0,0
0.1566666,-0.8839297,-0.6143906,0,0,0,0,0,0,0,0,0,0,0,0,0,1,0,0,0,0,0,-0.2250977,-0.8259277,-0.1933594,0,0,0,0,0,0
0.1599999,-0.8663375,-0.6131613,0,0,0,0,0,0,0,0,0,0,0,0,0,1,0,0,0,0,0,-0.1920166,-0.6263428,-0.3439941,0,0,0,0,0,0
0.1633333,-0.8569274,-0.604193,0,0,0,0,0,0,0,0,0,0,0,0,0,1,0,0,0,0,0,-0.1811523,-0.7419434,-0.5083008,0,0,0,0,0,0
0.1666666,-0.8481457,-0.6035641,0,0,0,0,0,0,0,0,0,0,0,0,0,1,0,0,-0.1824165,-0.02723753,-0.1166966,-0.08544922,-0.7462158,-0.8311768,0,0,0,0,0,0
0.1699999,-0.8393723,-0.6029294,0,0,0,0,0,0,0,0,0,0,0,0,0,1,0,0,-0.1231936,-0.04897757,-0.1104494,-0.04772949,-0.7105713,-0.9238281,0,0,0,0,0,0
0.1733332,-0.8312508,-0.6106344,0,0,0,0,0,0,0,0,0,0,0,0,0,1,0,0,-0.05120628,-0.049361,-0.09387816,-0.05334473,-0.673584,-0.7871094,0,0,0,0,0,0
0.1766666,-0.8089718,-0.6590161,0,0,0,0,0,0,0,0,0,0,0,0,0,1,0,0,0.02223982,-0.04023157,-0.08970892,-0.04956055,-0.6761475,-0.6168213,0,0,0,0,0,0
0.1799999,-0.8089718,-0.6590161,0,0,0,0,0,0,0,0,0,0,0,0,0,1,0,0,0,0,0,-0.04956055,-0.6761475,-0.6168213,0,0,0,0,0,0
0.1833332,-0.7888614,-0.7333636,0,0,0,0,0,0,0,0,0,0,0,0,0,1,0,0,0,0,0,-0.03833008,-0.7766113,-0.5384521,0,0,0,0,0,0
0.1866666,-0.7504452,-0.7901513,0,0,0,0,0,0,0,0,0,0,0,0,0,1,0,0,0,0,0,0.03601074,-0.9060059,-0.4760742,0,0,0,0,0,0
0.1899999,-0.7031947,-0.8382716,0,0,0,0,0,0,0,0,0,0,0,0,0,1,0,0,0,0,0,0.08435059,-0.9875488,-0.3858643,0,0,0,0,0,0
0.1933332,-0.6634662,-0.8700544,0,0,0,0,0,0,0,0,0,0,0,0,0,1,0,0,0,0,0,0.09838867,-1.029297,-0.3050537,0,0,0,0,0,0
0.1966666,-0.6155977,-0.9015527,0,0,0,0,0,0,0,0,0,0,0,0,0,1,0,0,0,0,0,0.08862305,-1.072632,-0.2966309,0,0,0,0,0,0
0.1999999,-0.5763075,-0.9340156,0,0,0,0,0,0,0,0,0,0,0,0,0,1,0,0,0,0,0,0.06604004,-1.125,-0.3149414,0,0,0,0,0,0
0.2033332,-0.5365938,-0.9579193,0,0,0,0,0,0,0,0,0,0,0,0,0,1,0,0,0,0,0,0.06359863,-1.121216,-0.3071289,0,0,0,0,0,0
0.2066665,-0.5047147,-0.9736622,0,0,0,0,0,0,0,0,0,0,0,0,0,1,0,0,0,0,0,0.07116699,-1.087891,-0.282959,0,0,0,0,0,0
0.2099999,-0.4729256,-0.9895671,0,0,0,0,0,0,0,0,0,0,0,0,0,1,0,0,0,0,0,0.07958984,-1.067383,-0.2169189,0,0,0,0,0,0
0.2133332,-0.4412105,-1,0,0,0,0,0,0,0,0,0,0,0,0,0,1,0,0,0.1436842,0.006247139,0.09895469,0.09301758,-1.032104,-0.211792,0,0,0,0,0,0
0.2166665,-0.4091095,-1,0,0,0,0,0,0,0,0,0,0,0,0,0,1,0,0,0.1466828,0.0154929,0.1037025,0.1054688,-0.9525146,-0.2359619,0,0,0,0,0,0
0.2199999,-0.3766855,-1,0,0,0,0,0,0,0,0,0,0,0,0,0,1,0,0,0.1554288,0.02124027,0.1034526,0.1049805,-0.894043,-0.2423096,0,0,0,0,0,0
0.2233332,-0.3766855,-1,0,0,0,0,0,0,0,0,0,0,0,0,0,1,0,0,0,0,0,0.1049805,-0.894043,-0.2423096,0,0,0,0,0,0
0.2266665,-0.3524597,-1,0,0,0,0,0,0,0,0,0,0,0,0,0,1,0,0,0,0,0,0.1021729,-0.8780518,-0.2818604,0,0,0,0,0,0
0.2299999,-0.3202776,-1,0,0,0,0,0,0,0,0,0,0,0,0,0,1,0,0,0,0,0,0.1015625,-0.8807373,-0.3371582,0,0,0,0,0,0
0.2333332,-0.2962267,-1,0,0,0,0,0,0,0,0,0,0,0,0,0,0,0,0,0,0,0,0.1086426,-0.8795166,-0.3615723,0,0,0,0,0,0
0.2366665,-0.2642672,-1,0,0,0,0,0,0,0,0,0,0,0,0,0,0,0,0,0,0,0,0.09106445,-0.8793945,-0.3450928,0,0,0,0,0,0
0.2399998,-0.2324234,-1,0,0,0,0,0,0,0,0,0,0,0,0,0,0,0,0,0,0,0,0.08081055,-0.9071045,-0.3347168,0,0,0,0,0,0
0.2433332,-0.1848525,-1,0,0,0,0,0,0,0,0,0,0,0,0,0,0,0,0,0,0,0,0.08666992,-1.066528,-0.4841309,0,0,0,0,0,0
0.2466665,-0.1374799,-1,0,0,0,0,0,0,0,0,0,0,0,0,0,0,0,0,0,0,0,-0.05297852,-0.9366455,-0.2674561,0,0,0,0,0,0
0.2499998,-0.09026043,-1,0,0,0,0,0,0,0,0,0,0,0,0,0,0,0,0,0,0,0,-0.08239746,-1.003784,-0.2296143,0,0,0,0,0,0
0.2533332,-0.035298,-1,0,0,0,0,0,0,0,0,0,0,0,0,0,0,0,0,0,0,0,-0.1040039,-1.001709,-0.1816406,0,0,0,0,0,0
0.2566665,0.01960851,-1,0,0,0,0,0,0,0,0,0,0,0,0,0,0,0,0,0,0,0,-0.08666992,-1.13916,-0.08679199,0,0,0,0,0,0
0.2599998,0.07454614,-1,0,0,0,0,0,0,0,0,0,0,0,0,0,0,0,0,0,0,0,0.06335449,-1.248535,0.02429199,0,0,0,0,0,0
0.2633332,0.1296006,-1,0,0,0,0,0,0,0,0,0,0,0,0,0,0,0,0,0,0,0,0.114624,-1.234863,-0.02832031,0,0,0,0,0,0
0.2666665,0.2006854,-1,0,0,0,0,0,0,0,0,0,0,0,0,0,0,0,0,0,0,0,0.08422852,-1.233276,-0.1062012,0,0,0,0,0,0
0.2699998,0.3605264,-1,0,0,0,0,0,0,0,0,0,0,0,0,0,1,0,0,-0.3666003,0.02223965,0.210162,-0.0333252,-1.288208,-0.1239014,0,0,0,0,0,0
0.2733332,0.547518,-1,0,0,0,0,0,0,0,0,0,0,0,0,0,1,0,0,0,0,0,-0.2745361,-1.167847,0.5528564,0,0,0,0,0,0
0.2766665,0.6412961,-0.9121541,-0.0058549,0.01522274,0,0,0,0,0,0,0,0,0,0,0,1,0,0,0,0,0,-0.380127,-0.7703857,0.1132813,0,0,0,0,0,0
0.2799998,0.765619,-0.655684,-0.1329622,0.2461216,0,0,0,0,0,0,0,0,0,0,0,1,0,0,-0.4010663,0.07371624,-0.0569739,-0.2714844,-0.7711182,-0.1846924,0,0,0,0,0,0
0.2833332,0.8078576,-0.5346691,-0.2179185,0.3610292,0,0,0,0,0,0,0,0,0,0,0,1,0,0,0,0,0,-0.04418945,-0.8076172,-0.65625,0,0,0,0,0,0
0.2866665,0.8523965,-0.4242521,-0.3212011,0.4765072,0,0,0,0,0,0,0,0,0,0,0,1,0,0,0,0,0,0.08410645,-0.80896,-0.9926758,0,0,0,0,0,0
0.2899998,0.8915501,-0.3387112,-0.4334744,0.574261,0,0,0,0,0,0,0,0,0,0,0,1,0,0,-0.2838931,-0.04523297,-0.05347987,0.06286621,-0.8450928,-1.087646,0,0,0,0,0,0
0.2933331,0.9144905,-0.2607271,-0.5374665,0.6441974,0,0,0,0,0,0,0,0,0,0,0,1,0,0,-0.1939841,-0.07565612,-0.02560314,0.03991699,-0.869751,-0.9556885,0,0,0,0,0,0
0.2966665,0.9398329,-0.2144847,-0.6500895,0.6968026,0,0,0,0,0,0,0,0,0,0,0,1,0,0,-0.1384366,-0.09020869,-0.006497024,-0.04528809,-0.8873291,-0.6600342,0,0,0,0,0,0
0.2999998,0.9748923,-0.1683549,-0.7722851,0.7406016,0,0,0,0,0,0,0,0,0,0,0,1,0,0,-0.09098796,-0.08073931,0.007249041,-0.05664063,-0.9038086,-0.5002441,0,0,0,0,0,0
0.3033331,0.9748923,-0.1683549,-0.7722851,0.7406016,0,0,0,0,0,0,0,0,0,0,0,1,0,0,0,0,0,-0.05664063,-0.9038086,-0.5002441,0,0,0,0,0,0
0.3066665,0.9830512,-0.1292458,-0.8234377,0.7359226,0,0,0,0,0,0,0,0,0,0,0,1,0,0,0,0,0,0.05212402,-0.9499512,-0.5053711,0,0,0,0,0,0
0.3099998,1,-0.09026043,-0.8475996,0.712302,0,0,0,0,0,0,0,0,0,0,0,1,0,0,0,0,0,-0.005371094,-1.041504,-0.4088135,0,0,0,0,0,0
0.3133331,1,-0.04314433,-0.8625466,0.6797026,0,0,0,0,0,0,0,0,0,0,0,1,0,0,0,0,0,-0.05541992,-1.134399,-0.3770752,0,0,0,0,0,0
0.3166665,1,0.01176485,-0.8775876,0.6472705,0,0,0,0,0,0,0,0,0,0,0,1,0,0,0,0,0,-0.06164551,-1.147827,-0.4036865,0,0,0,0,0,0
0.3199998,1,0.05884144,-0.899761,0.590592,0,0,0,0,0,0,0,0,0,0,0,1,0,0,0,0,0,-0.06201172,-1.133667,-0.4090576,0,0,0,0,0,0
0.3233331,1,0.1059862,-0.9295025,0.5102376,0,0,0,0,0,0,0,0,0,0,0,1,0,0,0,0,0,-0.01843262,-1.056885,-0.3808594,0,0,0,0,0,0
0.3266664,0.9838538,0.1607092,-0.9330987,0.4291466,0,0,0,0,0,0,0,0,0,0,0,1,0,0,0,0,0,0.02990723,-1.05188,-0.3675537,0,0,0,0,0,0
0.3299998,0.9584543,0.2229873,-0.9277642,0.3405716,0,0,0,0,0,0,0,0,0,0,0,1,0,0,0,0,0,0.05273438,-1.067749,-0.3818359,0,0,0,0,0,0
0.3333331,0.9255909,0.3007194,-0.8859923,0.2360067,0,0,0,0,0,0,0,0,0,0,0,1,0,0,0,0,0,0.04602051,-1.076538,-0.3634033,0,0,0,0,0,0
0.3366664,0.8760096,0.3776575,-0.8177484,0.1331218,0,0,0,0,0,0,0,0,0,0,0,1,0,0,0,0,0,0.03210449,-1.043579,-0.3232422,0,0,0,0,0,0
0.3399998,0.8286411,0.4629497,-0.7327936,0.04835694,0,0,0,0,0,0,0,0,0,0,0,1,0,0,0.06845193,0.03947228,0.1533923,0.008544922,-1.033203,-0.2131348,0,0,0,0,0,0
0.3433331,0.7835425,0.5574457,-0.6495883,-0.03266086,0,0,0,0,0,0,0,0,0,0,0,1,0,0,0.09220777,0.06871853,0.1536796,0.01574707,-0.8734131,-0.2130127,0,0,0,0,0,0
0.3466664,0.7311216,0.6529267,-0.5512089,-0.1088374,0,0,0,0,0,0,0,0,0,0,0,1,0,0,0.1426847,0.0847112,0.1349382,0.0111084,-0.6577148,-0.3037109,0,0,0,0,0,0
0.3499998,0.6705309,0.7411131,-0.4861134,-0.1896187,0,0,0,0,0,0,0,0,0,0,0,1,0,0,0.2026737,0.09846293,0.1239533,0.003540039,-0.7878418,-0.3170166,0,0,0,0,0,0
0.3533331,0.6705309,0.7411131,-0.4861134,-0.1896187,0,0,0,0,0,0,0,0,0,0,0,1,0,0,0,0,0,0.003540039,-0.7878418,-0.3170166,0,0,0,0,0,0
0.3566664,0.6196319,0.840647,-0.4275257,-0.2701963,0,0,0,0,0,0,0,0,0,0,0,1,0,0,0,0,0,0.05310059,-0.7940674,-0.3710938,0,0,0,0,0,0
0.3599997,0.5680113,0.933445,-0.3839104,-0.3631585,0,0,0,0,0,0,0,0,0,0,0,0,0,0,0,0,0,0.09521484,-0.8360596,-0.4473877,0,0,0,0,0,0
0.3633331,0.5072563,1,-0.3503499,-0.4635943,0,0,0,0,0,0,0,0,0,0,0,0,0,0,0,0,0,0.05932617,-0.8499756,-0.5068359,0,0,0,0,0,0
0.3666664,0.433522,1,-0.311341,-0.6043679,0,0,0,0,0,0,0,0,0,0,0,0,0,0,0,0,0,-0.03833008,-0.7330322,-0.5354004,0,0,0,0,0,0
0.3699997,0.4009901,1,-0.2682658,-0.7518998,0,0,0,0,0,0,0,0,0,0,0,0,0,0,0,0,0,0.04309082,-0.8071289,-0.5333252,0,0,0,0,0,0
0.3733331,0.3605264,1,-0.2138556,-0.9215233,0,0,0,0,0,0,0,0,0,0,0,0,0,0,0,0,0,-0.02197266,-0.8969727,-0.3574219,0,0,0,0,0,0
0.3766664,0.3122526,1,-0.1453634,-1,0,0,0,0,0,0,0,0,0,0,0,0,0,0,0,0,0,-0.02368164,-0.932251,-0.2530518,0,0,0,0,0,0
0.3799997,0.2562958,1,0,-1,0,0,0,0,0,0,0,0,0,0,0,0,0,0,0,0,0,-0.1049805,-1.101807,0.002197266,0,0,0,0,0,0
0.3833331,0.2006854,1,0.1217254,-1,0,0,0,0,0,0,0,0,0,0,0,0,0,0,0,0,0,-0.1652832,-1.069824,-0.03930664,0,0,0,0,0,0
0.3866664,0.1453634,1,0.2324234,-1,0,0,0,0,0,0,0,0,0,0,0,0,0,0,0,0,0,-0.2526855,-1.031128,-0.08105469,0,0,0,0,0,0
0.3899997,0.08240198,1,0.3283107,-1,0,0,0,0,0,0,0,0,0,0,0,0,0,0,0,0,0,-0.3050537,-0.9481201,-0.2032471,0,0,0,0,0,0
0.393333,0.01176485,1,0.4091095,-1,0,0,0,0,0,0,0,0,0,0,0,0,0,0,0,0,0,-0.303833,-0.8311768,-0.2290039,0,0,0,0,0,0
0.3966664,-0.05884144,1,0.4743927,-1,0,0,0,0,0,0,0,0,0,0,0,0,0,0,0,0,0,-0.3081055,-0.7194824,-0.2011719,0,0,0,0,0,0
0.3999997,-0.1296006,1,0.523744,-1,0,0,0,0,0,0,0,0,0,0,0,0,0,0,0,0,0,-0.2996826,-0.6975098,-0.2565918,0,0,0,0,0,0
0.403333,-0.2006854,1,0.5801693,-0.9962907,0,0,0,0,0,0,0,0,0,0,0,0,0,0,0,0,0,-0.2176514,-0.7530518,-0.2978516,0,0,0,0,0,0
0.4066664,-0.2642672,1,0.6285701,-0.9728824,0,0,0,0,0,0,0,0,0,0,0,0,0,0,0.04821196,0.02791219,-0.09088762,-0.1600342,-0.8116455,-0.3679199,0,0,0,0,0,0
0.4099997,-0.3283107,1,0.6772434,-0.9497437,0,0,0,0,0,0,0,0,0,0,0,0,0,0,0.07346037,0.0114938,-0.0976973,-0.1374512,-0.8320313,-0.4101563,0,0,0,0,0,0
0.413333,-0.3928797,1,0.7171578,-0.9174812,0,0,0,0,0,0,0,0,0,0,0,0,0,0,0.09570616,-0.01074508,-0.09620593,-0.1088867,-0.8360596,-0.3989258,0,0,0,0,0,0
0.4166664,-0.4580168,1,0.7566752,-0.8767824,0,0,0,0,0,0,0,0,0,0,0,0,0,0,0.1219442,-0.03148558,-0.09545628,-0.05664063,-0.8974609,-0.3546143,0,0,0,0,0,0
0.4199997,-0.5154955,1,0.7970289,-0.8450909,0,0,0,0,0,0,0,0,0,0,0,0,0,0,0.1336888,-0.04772814,-0.09270754,-0.09033203,-0.8760986,-0.4063721,0,0,0,0,0,0
0.423333,-0.5801693,0.9962907,0.8284124,-0.8044004,0,0,0,0,0,0,0,0,0,0,0,0,0,0,0.1358701,-0.05697777,-0.09019558,-0.1173096,-0.8422852,-0.4542236,0,0,0,0,0,0
0.4266663,-0.5801693,0.9962907,0.8284124,-0.8044004,0,0,0,0,0,0,0,0,0,0,0,0,0,0,0,0,0,-0.1173096,-0.8422852,-0.4542236,0,0,0,0,0,0
0.4299997,-0.6363822,0.9645792,0.8513149,-0.7633857,0,0,0,0,0,0,0,0,0,0,0,0,0,0,0,0,0,-0.1158447,-0.8491211,-0.4753418,0,0,0,0,0,0
0.433333,-0.6923701,0.9244941,0.8812595,-0.69783,0,0,0,0,0,0,0,0,0,0,0,0,0,0,0,0,0,-0.09533691,-0.8811035,-0.4698486,0,0,0,0,0,0
0.4366663,-0.7481521,0.8761782,0.9027491,-0.6323221,0,0,0,0,0,0,0,0,0,0,0,0,0,0,0,0,0,-0.08557129,-0.9224854,-0.4571533,0,0,0,0,0,0
0.4399997,-0.8031714,0.8111632,0.956296,-0.5118763,0,0,0,0,0,0,0,0,0,0,0,0,0,0,0,0,0,-0.08605957,-0.9998779,-0.3933105,0,0,0,0,0,0
0.443333,-0.8513149,0.7633857,1,-0.3686016,0,0,0,0,0,0,0,0,0,0,0,0,0,0,0,0,0,-0.2324219,-0.9160156,-0.2763672,0,0,0,0,0,0
0.4466663,-0.8999631,0.7159706,1,-0.3122526,0,0,0,0,0,0,0,0,0,0,0,1,0,0,0,0,0,-0.2655029,-0.8895264,-0.1888428,0,0,0,0,0,0
0.4499997,-0.9397725,0.6598403,1,-0.2962267,0,0,0,0,0,0,0,0,0,0,0,1,0,0,0,0,0,-0.1636963,-0.8981934,-0.1588135,0,0,0,0,0,0
0.453333,-0.9617803,0.5946276,1,-0.2722459,0,0,0,0,0,0,0,0,0,0,0,1,0,0,0,0,0,-0.0255127,-0.8964844,-0.1480713,0,0,0,0,0,0
0.4566663,-0.9931315,0.5304679,1,-0.2403741,0,0,0,0,0,0,0,0,0,0,0,1,0,0,0,0,0,0.08190918,-0.9038086,-0.1724854,0,0,0,0,0,0
0.4599997,-1,0.4743927,1,-0.1927661,0,0,0,0,0,0,0,0,0,0,0,1,0,0,0,0,0,0.1206055,-0.9984131,-0.2164307,0,0,0,0,0,0
0.463333,-1,0.4172379,1,-0.1296006,0,0,0,0,0,0,0,0,0,0,0,1,0,0,0,0,0,0.08520508,-1.073608,-0.2409668,0,0,0,0,0,0
0.4666663,-1,0.3605264,1,-0.05099206,0,0,0,0,0,0,0,0,0,0,0,0,0,0,0.133794,-0.0355246,-0.08189113,0.04406738,-1.076416,-0.2322998,0,0,0,0,0,0
0.4699996,-1,0.3042357,1,0.02745281,0,0,0,0,0,0,0,0,0,0,0,0,0,0,0.1306901,-0.02898672,-0.07471578,-0.0001220703,-1.046753,-0.2054443,0,0,0,0,0,0
0.473333,-1,0.2483314,0.8993542,0.08877745,0,0,0,0,0,0,0,0,0,0,0,0,0,0,0.1194453,-0.0172421,-0.06372081,-0.01953125,-1.050171,-0.189209,0,0,0,0,0,0
0.4766663,-1,0.2483314,0.8993542,0.08877745,0,0,0,0,0,0,0,0,0,0,0,0,0,0,0,0,0,-0.01953125,-1.050171,-0.189209,0,0,0,0,0,0
0.4799996,-1,0.1927661,0.7531964,0.1236591,0,0,0,0,0,0,0,0,0,0,0,0,0,0,0,0,0,0.01135254,-1.096436,-0.2176514,0,0,0,0,0,0
0.483333,-1,0.1217254,0.5626832,0.1450944,0,0,0,0,0,0,0,0,0,0,0,0,0,0,0,0,0,0.06567383,-1.134399,-0.2867432,0,0,0,0,0,0
0.4866663,-1,0.05884144,0.3662282,0.1433067,0,0,0,0,0,0,0,0,0,0,0,0,0,0,0,0,0,0.0657959,-1.075317,-0.2437744,0,0,0,0,0,0
0.4899996,-1,-0.01176485,0.1724896,0.1174929,0,0,0,0,0,0,0,0,0,0,0,0,0,0,0,0,0,0.04248047,-1.062378,-0.1784668,0,0,0,0,0,0
0.493333,-1,-0.08240198,0.02579932,0.05047693,0,0,0,0,0,0,0,0,0,0,0,0,0,0,0,0,0,0.06970215,-1.053711,-0.1766357,0,0,0,0,0,0
0.4966663,-1,-0.1453634,-0.005370171,0.02565748,0,0,0,0,0,0,0,0,0,0,0,0,0,0,0,0,0,0.1671143,-1.125,-0.3123779,0,0,0,0,0,0
0.4999996,-1,-0.2086106,-0.02751031,0.04177491,0,0,0,0,0,0,0,0,0,0,0,0,0,0,0,0,0,0.07873535,-1.065552,-0.1802979,0,0,0,0,0,0
0.503333,-1,-0.2562958,-0.07066685,0.06738002,0,0,0,0,0,0,0,0,0,0,0,0,0,0,0,0,0,-0.03149414,-1.041992,-0.07714844,0,0,0,0,0,0
0.5066663,-1,-0.2962267,-0.1197162,0.08611164,0,0,0,0,0,0,0,0,0,0,0,0,0,0,0,0,0,-0.1364746,-1.038208,-0.02392578,0,0,0,0,0,0
0.5099996,-1,-0.336352,-0.1585883,0.09704658,0,0,0,0,0,0,0,0,0,0,0,0,0,0,0,0,0,-0.2175293,-1.025146,0.1004639,0,0,0,0,0,0
0.513333,-1,-0.3605264,-0.1847411,0.1088201,0,0,0,0,0,0,0,0,0,0,0,0,0,0,0,0,0,-0.1798096,-1.078613,0.2053223,0,0,0,0,0,0
0.5166663,-1,-0.3847782,-0.2011741,0.112344,0,0,0,0,0,0,0,0,0,0,0,0,0,0,0,0,0,-0.1019287,-1.070313,0.1813965,0,0,0,0,0,0
0.5199996,-1,-0.3928797,-0.2011741,0.112344,0,0,0,0,0,0,0,0,0,0,0,0,0,0,-0.02748741,0.09970434,0.04023157,-0.06103516,-1.060303,0.04394531,0,0,0,0,0,0
0.523333,-1,-0.4005468,-0.2011741,0.112344,0,0,0,0,0,0,0,0,0,0,0,0,0,0,-0.04273043,0.09670571,0.03948192,-0.09265137,-1.033447,-0.08190918,0,0,0,0,0,0
0.5266663,-1,-0.4005468,-0.2011741,0.112344,0,0,0,0,0,0,0,0,0,0,0,0,0,0,0,0,0,-0.09265137,-1.033447,-0.08190918,0,0,0,0,0,0
0.5299996,-1,-0.4005468,-0.2011741,0.112344,0,0,0,0,0,0,0,0,0,0,0,0,0,0,0,0,0,-0.1182861,-1.035034,-0.1340332,0,0,0,0,0,0
0.5333329,-1,-0.4086611,-0.1847411,0.1088201,0,0,0,0,0,0,0,0,0,0,0,1,0,0,0,0,0,-0.1029053,-1.067627,-0.1740723,0,0,0,0,0,0
0.5366663,-0.9952164,-0.4163256,-0.1685705,0.1050512,0,0,0,0,0,0,0,0,0,0,0,1,0,0,0,0,0,-0.08215332,-1.098633,-0.1966553,0,0,0,0,0,0
0.5399996,-0.9956806,-0.4244535,-0.1220964,0.09210785,0,0,0,0,0,0,0,0,0,0,0,1,0,0,0,0,0,-0.08288574,-1.091431,-0.2519531,0,0,0,0,0,0
0.5433329,-0.9961495,-0.4325908,-0.07716605,0.07030685,0,0,0,0,0,0,0,0,0,0,0,1,0,0,0,0,0,-0.1035156,-0.9958496,-0.2769775,0,0,0,0,0,0
0.5466663,-0.9880918,-0.4484112,-0.0402058,0.04250327,0,0,0,0,0,0,0,0,0,0,0,1,0,0,0,0,0,-0.1303711,-0.9359131,-0.298584,0,0,0,0,0,0
0.5499996,-0.9795809,-0.4560802,-0.005208445,0.007472986,0,0,0,0,0,0,0,0,0,0,0,1,0,0,0,0,0,-0.1574707,-0.9311523,-0.34375,0,0,0,0,0,0
0.5533329,-0.9715978,-0.4719189,0,0,0,0,0,0,0,0,0,0,0,0,0,1,0,0,0,0,0,-0.1468506,-0.8077393,-0.3433838,0,0,0,0,0,0
0.5566663,-0.9647085,-0.5041893,0,0,0,0,0,0,0,0,0,0,0,0,0,1,0,0,0,0,0,-0.1544189,-0.7651367,-0.4299316,0,0,0,0,0,0
0.5599996,-0.9490002,-0.5360461,0,0,0,0,0,0,0,0,0,0,0,0,0,1,0,0,0,0,0,-0.1248779,-0.8293457,-0.4538574,0,0,0,0,0,0
0.5633329,-0.925144,-0.5757334,0,0,0,0,0,0,0,0,0,0,0,0,0,1,0,0,-0.02373913,0.01524302,-0.06272127,-0.06164551,-0.8604736,-0.4570313,0,0,0,0,0,0
0.5666662,-0.9021508,-0.6239545,0,0,0,0,0,0,0,0,0,0,0,0,0,1,0,0,-0.01245668,-0.002306792,-0.0666663,-0.01879883,-0.8813477,-0.4698486,0,0,0,0,0,0
0.5699996,-0.8619251,-0.6712689,0,0,0,0,0,0,0,0,0,0,0,0,0,1,0,0,-0.002498855,-0.01924119,-0.08096292,-0.01318359,-0.8815918,-0.4381104,0,0,0,0,0,0
0.5733329,-0.8619251,-0.6712689,0,0,0,0,0,0,0,0,0,0,0,0,0,1,0,0,0,0,0,-0.01318359,-0.8815918,-0.4381104,0,0,0,0,0,0
0.5766662,-0.8308456,-0.7195361,0,0,0,0,0,0,0,0,0,0,0,0,0,1,0,0,0,0,0,-0.03149414,-0.9074707,-0.3239746,0,0,0,0,0,0
0.5799996,-0.790792,-0.7590014,0,0,0,0,0,0,0,0,0,0,0,0,0,1,0,0,0,0,0,-0.01867676,-0.9112549,-0.2749023,0,0,0,0,0,0
0.5833329,-0.7510855,-0.7987735,0,0,0,0,0,0,0,0,0,0,0,0,0,1,0,0,0,0,0,-0.001953125,-0.9217529,-0.30896,0,0,0,0,0,0
0.5866662,-0.7031947,-0.8382716,0,0,0,0,0,0,0,0,0,0,0,0,0,1,0,0,0,0,0,0.02404785,-0.9445801,-0.3457031,0,0,0,0,0,0
0.5899996,-0.6634662,-0.8700544,0,0,0,0,0,0,0,0,0,0,0,0,0,1,0,0,0,0,0,0.02587891,-0.9482422,-0.3441162,0,0,0,0,0,0
0.5933329,-0.6239545,-0.9021508,0.01322114,-0.02455354,0,0,0,0,0,0,0,0,0,0,0,1,0,0,0,0,0,-0.007080078,-0.923584,-0.350708,0,0,0,0,0,0
0.5966662,-0.5763075,-0.9340156,0.0400546,-0.08491576,0,0,0,0,0,0,0,0,0,0,0,1,0,0,0,0,0,0.01831055,-0.9680176,-0.3660889,0,0,0,0,0,0
0.5999995,-0.520642,-0.965771,0.06705618,-0.1406017,0,0,0,0,0,0,0,0,0,0,0,1,0,0,0,0,0,0.08081055,-0.9735107,-0.3458252,0,0,0,0,0,0
0.6033329,-0.4729256,-0.9895671,0.09147876,-0.211708,0,0,0,0,0,0,0,0,0,0,0,1,0,0,0,0,0,0.09655762,-0.9807129,-0.2811279,0,0,0,0,0,0
0.6066662,-0.4172379,-1,0.1204527,-0.2849734,0,0,0,0,0,0,0,0,0,0,0,0,0,0,0,0,0,0.1212158,-0.9936523,-0.2655029,0,0,0,0,0,0
0.6099995,-0.3686016,-1,0.1413116,-0.3485685,0,0,0,0,0,0,0,0,0,0,0,0,0,0,0.09895267,-0.01660744,-0.04336387,0.1270752,-0.99646,-0.3027344,0,0,0,0,0,0
0.6133329,-0.3122526,-1,0.161662,-0.4124031,0,0,0,0,0,0,0,0,0,0,0,0,0,0,0.08818088,-0.01948473,-0.04421534,0.1433105,-1.105347,-0.2810059,0,0,0,0,0,0
0.6166662,-0.3122526,-1,0.161662,-0.4124031,0,0,0,0,0,0,0,0,0,0,0,0,0,0,0,0,0,0.1433105,-1.105347,-0.2810059,0,0,0,0,0,0
0.6199995,-0.2642672,-1,0.1808502,-0.4674807,0,0,0,0,0,0,0,0,0,0,0,0,0,0,0,0,0,0.09985352,-0.987915,-0.3879395,0,0,0,0,0,0
0.6233329,-0.2165419,-1,0.2072334,-0.5233523,0,0,0,0,0,0,0,0,0,0,0,0,0,0,0,0,0,0.05163574,-0.8901367,-0.2611084,0,0,0,0,0,0
0.6266662,-0.1690417,-1,0.2263517,-0.5784543,0,0,0,0,0,0,0,0,0,0,0,0,0,0,0,0,0,0.0369873,-0.963501,-0.2451172,0,0,0,0,0,0
0.6299995,-0.113854,-1,0.2516345,-0.6163222,0,0,0,0,0,0,0,0,0,0,0,0,0,0,0,0,0,0.01660156,-1.000732,-0.2108154,0,0,0,0,0,0
0.6333328,-0.05099206,-1,0.3009492,-0.6650605,0,0,0,0,0,0,0,0,0,0,0,0,0,0,0,0,0,-0.03100586,-0.9929199,-0.1314697,0,0,0,0,0,0
0.6366662,0.01176485,-1,0.3419473,-0.6951676,0,0,0,0,0,0,0,0,0,0,0,0,0,0,0,0,0,-0.08276367,-0.9475098,-0.1013184,0,0,0,0,0,0
0.6399995,0.06669273,-1,0.3828014,-0.7163314,0,0,0,0,0,0,0,0,0,0,0,0,0,0,0,0,0,-0.1268311,-0.9359131,-0.1409912,0,0,0,0,0,0
0.6433328,0.1217254,-1,0.4227422,-0.7198042,0,0,0,0,0,0,0,0,0,0,0,0,0,0,0,0,0,-0.1804199,-0.8979492,-0.1278076,0,0,0,0,0,0
0.6466662,0.1769445,-1,0.4638073,-0.7321256,0,0,0,0,0,0,0,0,0,0,0,0,0,0,0,0,0,-0.1951904,-0.854248,-0.03625488,0,0,0,0,0,0
0.6499995,0.2324234,-1,0.4882178,-0.7342489,0,0,0,0,0,0,0,0,0,0,0,0,0,0,0,0,0,-0.1401367,-0.8405762,0.01989746,0,0,0,0,0,0
0.6533328,0.2962267,-1,0.5127675,-0.7363803,0,0,0,0,0,0,0,0,0,0,0,0,0,0,0,0,0,-0.04187012,-0.8759766,-0.01965332,0,0,0,0,0,0
0.6566662,0.3605264,-1,0.5374524,-0.7385137,0,0,0,0,0,0,0,0,0,0,0,0,0,0,0,0,0,0.02758789,-0.9061279,-0.06408691,0,0,0,0,0,0
0.6599995,0.4416777,-1,0.5698583,-0.7326749,0,0,0,0,0,0,0,0,0,0,0,0,0,0,0.1049498,0.07265756,-0.008073061,0.04772949,-0.9007568,-0.07312012,0,0,0,0,0,0
0.6633328,0.523744,-1,0.6017767,-0.7182496,0,0,0,0,0,0,0,0,0,0,0,0,0,0,0.1379368,0.08071303,0.01324393,0.1331787,-1.078735,-0.04724121,0,0,0,0,0,0
0.6666662,0.523744,-1,0.6017767,-0.7182496,0,0,0,0,0,0,0,0,0,0,0,0,0,0,0,0,0,0.1331787,-1.078735,-0.04724121,0,0,0,0,0,0
0.6699995,0.6839312,-0.923907,0.6782494,-0.6317409,0,0,0,0,0,0,0,0,0,0,0,0,0,0,0.08788879,0.06389815,0.03183374,-0.04248047,-1.040039,-0.1212158,0,0,0,0,0,0
0.6733328,0.6839312,-0.923907,0.6782494,-0.6317409,0,0,0,0,0,0,0,0,0,0,0,0,0,0,0,0,0,-0.04248047,-1.040039,-0.1212158,0,0,0,0,0,0
0.6766661,0.7554604,-0.8593862,0.7067106,-0.5676855,0,0,0,0,0,0,0,0,0,0,0,0,0,0,0,0,0,-0.1400146,-1.049194,-0.1699219,0,0,0,0,0,0
0.6799995,0.8179268,-0.778028,0.7437115,-0.4970921,0,0,0,0,0,0,0,0,0,0,0,1,0,0,0,0,0,-0.1876221,-1.093262,-0.1907959,0,0,0,0,0,0
0.6833328,0.8725189,-0.6972183,0.7810873,-0.4194016,0,0,0,0,0,0,0,0,0,0,0,1,0,0,0,0,0,-0.1466064,-1.152222,-0.2363281,0,0,0,0,0,0
0.6866661,0.9103752,-0.6161929,0.8013256,-0.3335661,0,0,0,0,0,0,0,0,0,0,0,1,0,0,0,0,0,-0.06201172,-1.172241,-0.2770996,0,0,0,0,0,0
0.6899995,0.9495519,-0.5443038,0.8316805,-0.2414556,0,0,0,0,0,0,0,0,0,0,0,1,0,0,0,0,0,-0.04980469,-1.267822,-0.01660156,0,0,0,0,0,0
0.6933328,0.9800786,-0.4642477,0.8550028,-0.1495297,0,0,0,0,0,0,0,0,0,0,0,1,0,0,0,0,0,-0.003051758,-0.9052734,-0.1123047,0,0,0,0,0,0
0.6966661,1,-0.3843456,0.8620933,-0.06513593,0,0,0,0,0,0,0,0,0,0,0,1,0,0,0,0,0,-0.07104492,-0.9144287,-0.3178711,0,0,0,0,0,0
0.6999995,1,-0.3202776,0.8616353,0.01914745,0,0,0,0,0,0,0,0,0,0,0,1,0,0,0,0,0,-0.02197266,-0.9355469,-0.4545898,0,0,0,0,0,0
0.7033328,1,-0.2562958,0.862671,0.09585234,0,0,0,0,0,0,0,0,0,0,0,1,0,0,0,0,0,0.04296875,-0.9284668,-0.5200195,0,0,0,0,0,0
0.7066661,1,-0.2006854,0.8552735,0.1572476,0,0,0,0,0,0,0,0,0,0,0,1,0,0,0,0,0,0.09155273,-0.9053955,-0.5571289,0,0,0,0,0,0
0.7099994,1,-0.1611441,0.8114502,0.2019101,0,0,0,0,0,0,0,0,0,0,0,1,0,0,0,0,0,0.1081543,-0.8824463,-0.5671387,0,0,0,0,0,0
0.7133328,1,-0.1217254,0.7498675,0.2373952,0,0,0,0,0,0,0,0,0,0,0,1,0,0,0,0,0,0.1026611,-0.8699951,-0.4989014,0,0,0,0,0,0
0.7166661,1,-0.08240198,0.6893649,0.2720197,0,0,0,0,0,0,0,0,0,0,0,1,0,0,0,0,0,0.0916748,-0.9112549,-0.4019775,0,0,0,0,0,0
0.7199994,1,-0.05884144,0.6109509,0.2890127,0,0,0,0,0,0,0,0,0,0,0,1,0,0,0.02814287,-0.1003455,-0.09596256,0.08874512,-0.9272461,-0.34021,0,0,0,0,0,0
0.7233328,1,-0.02745281,0.525431,0.3038206,0,0,0,0,0,0,0,0,0,0,0,1,0,0,0.04797802,-0.1146975,-0.1032027,0.09020996,-0.9876709,-0.2918701,0,0,0,0,0,0
0.7266661,1,-0.003921574,0.4414116,0.3093357,0,0,0,0,0,0,0,0,0,0,0,1,0,0,0.06172173,-0.1159469,-0.09720548,0.08398438,-1.003174,-0.2421875,0,0,0,0,0,0
0.7299994,1,-0.003921574,0.4414116,0.3093357,0,0,0,0,0,0,0,0,0,0,0,1,0,0,0,0,0,0.08398438,-1.003174,-0.2421875,0,0,0,0,0,0
0.7333328,1,0.02745281,0.3592274,0.3055111,0,0,0,0,0,0,0,0,0,0,0,1,0,0,0,0,0,0.07592773,-1.01001,-0.2144775,0,0,0,0,0,0
0.7366661,1,0.05884144,0.280827,0.3001943,0,0,0,0,0,0,0,0,0,0,0,1,0,0,0,0,0,0.1002197,-1.016846,-0.1756592,0,0,0,0,0,0
0.7399994,1,0.09026043,0.2204813,0.2887994,0,0,0,0,0,0,0,0,0,0,0,1,0,0,0,0,0,0.1264648,-1.020752,-0.1329346,0,0,0,0,0,0
0.7433327,1,0.1453634,0.1692989,0.2702842,0,0,0,0,0,0,0,0,0,0,0,1,0,0,0,0,0,0.1143799,-1.020142,-0.08178711,0,0,0,0,0,0
0.7466661,0.976185,0.2077823,0.118725,0.234689,0,0,0,0,0,0,0,0,0,0,0,1,0,0,0,0,0,0.0916748,-1.026245,-0.05871582,0,0,0,0,0,0
0.7499994,0.916082,0.2923666,0.07855936,0.2001997,0,0,0,0,0,0,0,0,0,0,0,1,0,0,0,0,0,0.0949707,-1.048584,-0.04833984,0,0,0,0,0,0
0.7533327,0.8490287,0.3760538,0.04683373,0.1583426,0,0,0,0,0,0,0,0,0,0,0,1,0,0,0,0,0,0.09753418,-1.098877,-0.07336426,0,0,0,0,0,0
0.7566661,0.7673236,0.4665636,0.01840575,0.09872177,0,0,0,0,0,0,0,0,0,0,0,1,0,0,0,0,0,0.1010742,-1.10437,-0.09399414,0,0,0,0,0,0
0.7599994,0.6887111,0.5578945,0.001012919,0.04963304,0,0,0,0,0,0,0,0,0,0,0,1,0,0,0,0,0,0.1107178,-1.086914,-0.1173096,0,0,0,0,0,0
0.7633327,0.612641,0.6511719,-0.001119261,0.006235885,0,0,0,0,0,0,0,0,0,0,0,1,0,0,0,0,0,0.1025391,-1.077637,-0.1263428,0,0,0,0,0,0
0.7666661,0.5360163,0.7211155,0,0,0,0,0,0,0,0,0,0,0,0,0,0,0,0,0.0297388,0.06272638,-0.1024614,0.08190918,-1.079346,-0.1401367,0,0,0,0,0,0
0.7699994,0.4691911,0.8026659,0,0,0,0,0,0,0,0,0,0,0,0,0,0,0,0,-0.002306589,0.07058162,-0.09849135,0.05908203,-1.08728,-0.1274414,0,0,0,0,0,0
0.7733327,0.4691911,0.8026659,0,0,0,0,0,0,0,0,0,0,0,0,0,0,0,0,0,0,0,0.05908203,-1.08728,-0.1274414,0,0,0,0,0,0
0.776666,0.4098022,0.8781476,0,0,0,0,0,0,0,0,0,0,0,0,0,0,0,0,0,0,0,-0.009887695,-1.08374,-0.1352539,0,0,0,0,0,0
0.7799994,0.3414637,0.9458938,0,0,0,0,0,0,0,0,0,0,0,0,0,0,0,0,0,0,0,-0.1075439,-1.055054,-0.08068848,0,0,0,0,0,0
0.7833327,0.3034922,0.9893057,0,0,0,0,0,0,0,0,0,0,0,0,0,0,0,0,0,0,0,-0.1116943,-1.057983,-0.0904541,0,0,0,0,0,0
0.786666,0.2642672,1,0,0,0,0,0,0,0,0,0,0,0,0,0,0,0,0,0,0,0,-0.08813477,-1.064697,-0.1153564,0,0,0,0,0,0
0.7899994,0.2324234,1,0,0,0,0,0,0,0,0,0,0,0,0,0,0,0,0,-0.1794178,0.1279414,-0.1471826,-0.08337402,-0.9935303,-0.1191406,0,0,0,0,0,0
0.7933327,0.1217254,1,0,0,0,0,0,0,0,0,0,0,0,0,0,0,0,0,0,0,0,-0.09130859,-0.9949951,-0.01708984,0,0,0,0,0,0
0.796666,0.08240198,1,0,0,0,0,0,0,0,0,0,0,0,0,0,0,0,0,0,0,0,-0.07470703,-1.011353,0.01184082,0,0,0,0,0,0
0.7999994,0.05099206,1,0,0,0,0,0,0,0,0,0,0,0,0,0,0,0,0,0,0,0,-0.0567627,-1.016479,0.04089355,0,0,0,0,0,0
0.8033327,0.01960851,1,0,0,0,0,0,0,0,0,0,0,0,0,0,0,0,0,0,0,0,-0.03417969,-1.028198,0.1011963,0,0,0,0,0,0
0.806666,-0.01176485,1,0,0,0,0,0,0,0,0,0,0,0,0,0,0,0,0,0,0,0,-0.0480957,-1.085205,0.07104492,0,0,0,0,0,0
0.8099993,-0.035298,1,0,0,0,0,0,0,0,0,0,0,0,0,0,0,0,0,-0.09470662,0.176919,-0.06871853,-0.01379395,-1.11438,0.0970459,0,0,0,0,0,0
0.8133327,-0.06669273,1,0,0,0,0,0,0,0,0,0,0,0,0,0,0,0,0,-0.08996613,0.1811818,-0.04273391,0.04528809,-1.204224,0.1070557,0,0,0,0,0,0
0.816666,-0.08240198,1,0,0,0,0,0,0,0,0,0,0,0,0,0,0,0,0,-0.09345719,0.1756695,-0.02973638,-0.2078857,-1.135132,-0.1959229,0,0,0,0,0,0
0.8199993,-0.1059862,1,0,0,0,0,0,0,0,0,0,0,0,0,0,0,0,0,-0.079707,0.1536671,-0.01923962,-0.1262207,-1.079712,-0.494873,0,0,0,0,0,0
0.8233327,-0.1059862,1,0,0,0,0,0,0,0,0,0,0,0,0,0,0,0,0,0,0,0,-0.1262207,-1.079712,-0.494873,0,0,0,0,0,0
0.826666,-0.1453634,1,0,0,0,0,0,0,0,0,0,0,0,0,0,0,0,0,0,0,0,-0.02185059,-1.110107,-0.4306641,0,0,0,0,0,0
0.8299993,-0.1848525,1,0,0,0,0,0,0,0,0,0,0,0,0,0,0,0,0,0,0,0,0.02404785,-1.102905,-0.4147949,0,0,0,0,0,0
0.8333327,-0.2165419,1,0,0,0,0,0,0,0,0,0,0,0,0,0,0,0,0,0,0,0,-0.03540039,-1.036865,-0.444458,0,0,0,0,0,0
0.836666,-0.2483314,1,0,0,0,0,0,0,0,0,0,0,0,0,0,1,0,0,0,0,0,-0.05505371,-0.9962158,-0.2746582,0,0,0,0,0,0
0.8399993,-0.2802319,1,0,0,0,0,0,0,0,0,0,0,0,0,0,1,0,0,0,0,0,-0.07250977,-0.9089355,-0.1920166,0,0,0,0,0,0
0.8433326,-0.2962267,1,0,0,0,0,0,0,0,0,0,0,0,0,0,1,0,0,0,0,0,-0.09191895,-0.7897949,-0.2666016,0,0,0,0,0,0
0.846666,-0.3202776,1,0,0,0,0,0,0,0,0,0,0,0,0,0,1,0,0,0,0,0,-0.05651855,-0.6724854,-0.2746582,0,0,0,0,0,0
0.8499993,-0.3355535,0.9908698,0,0,0,0,0,0,0,0,0,0,0,0,0,1,0,0,0,0,0,0.02368164,-0.5489502,-0.2301025,0,0,0,0,0,0
0.8533326,-0.3583938,0.9649065,0,0,0,0,0,0,0,0,0,0,0,0,0,1,0,0,0,0,0,0.1008301,-0.5115967,-0.2211914,0,0,0,0,0,0
0.856666,-0.3731085,0.9386625,0,0,0,0,0,0,0,0,0,0,0,0,0,1,0,0,0.009688528,0.05259487,-0.1607834,0.159668,-0.5706787,-0.3005371,0,0,0,0,0,0
0.8599993,-0.3877373,0.9125535,0,0,0,0,0,0,0,0,0,0,0,0,0,1,0,0,-0.006996796,0.05247597,-0.2089043,0.1824951,-0.6665039,-0.4331055,0,0,0,0,0,0
0.8633326,-0.4108776,0.8961046,0,0,0,0,0,0,0,0,0,0,0,0,0,1,0,0,-0.01824165,0.04422975,-0.2256467,0.1968994,-0.7871094,-0.5217285,0,0,0,0,0,0
0.866666,-0.4264964,0.8882082,0,0,0,0,0,0,0,0,0,0,0,0,0,1,0,0,-0.02214521,0.03298713,-0.207842,0.2050781,-0.8837891,-0.5716553,0,0,0,0,0,0
0.8699993,-0.4264964,0.8882082,0,0,0,0,0,0,0,0,0,0,0,0,0,1,0,0,0,0,0,0.2050781,-0.8837891,-0.5716553,0,0,0,0,0,0
0.8733326,-0.4496819,0.8719919,0,0,0,0,0,0,0,0,0,0,0,0,0,1,0,0,0,0,0,0.2106934,-0.9373779,-0.5812988,0,0,0,0,0,0
0.8766659,-0.4653549,0.8642306,0,0,0,0,0,0,0,0,0,0,0,0,0,1,0,0,0,0,0,0.2733154,-0.9157715,-0.5427246,0,0,0,0,0,0
0.8799993,-0.480454,0.8476302,0,0,0,0,0,0,0,0,0,0,0,0,0,1,0,0,0,0,0,0.2713623,-0.9187012,-0.5280762,0,0,0,0,0,0
0.8833326,-0.4867558,0.8216439,0,0,0,0,0,0,0,0,0,0,0,0,0,1,0,0,0,0,0,0.1486816,-1.003052,-0.5411377,0,0,0,0,0,0
0.8866659,-0.492992,0.7957745,0,0,0,0,0,0,0,0,0,0,0,0,0,1,0,0,0,0,0,0.1300049,-0.9820557,-0.4718018,0,0,0,0,0,0
0.8899993,-0.49984,0.7788205,0,0,0,0,0,0,0,0,0,0,0,0,0,1,0,0,0,0,0,0.1552734,-0.9630127,-0.4576416,0,0,0,0,0,0
0.8933326,-0.507351,0.7707087,0,0,0,0,0,0,0,0,0,0,0,0,0,1,0,0,0,0,0,0.1442871,-0.9240723,-0.4724121,0,0,0,0,0,0
0.8966659,-0.5148669,0.7626224,0,0,0,0,0,0,0,0,0,0,0,0,0,1,0,0,0,0,0,0.1275635,-0.9033203,-0.4868164,0,0,0,0,0,0
0.8999993,-0.5230814,0.7633113,0,0,0,0,0,0,0,0,0,0,0,0,0,1,0,0,0,0,0,0.1611328,-0.8967285,-0.59375,0,0,0,0,0,0
0.9033326,-0.5388598,0.7559544,0,0,0,0,0,0,0,0,0,0,0,0,0,1,0,0,0,0,0,0.1101074,-0.8509521,-0.5072021,0,0,0,0,0,0
0.9066659,-0.5471169,0.756651,0,0,0,0,0,0,0,0,0,0,0,0,0,1,0,0,0.1153294,0.02837104,-0.004613177,0.1206055,-0.8768311,-0.4803467,0,0,0,0,0,0
0.9099993,-0.555388,0.7573472,0,0,0,0,0,0,0,0,0,0,0,0,0,1,0,0,0.1421849,0.03373455,0.01424348,0.1226807,-0.8774414,-0.4476318,0,0,0,0,0,0
0.9133326,-0.563673,0.7580431,0,0,0,0,0,0,0,0,0,0,0,0,0,0,0,0,0.1509309,0.03548375,0.0294865,0.1040039,-0.852417,-0.4390869,0,0,0,0,0,0
0.9166659,-0.5802842,0.7594324,0,0,0,0,0,0,0,0,0,0,0,0,0,0,0,0,0.1453279,0.03137238,0.03506324,0.100708,-0.8198242,-0.4621582,0,0,0,0,0,0
0.9199992,-0.5802842,0.7594324,0,0,0,0,0,0,0,0,0,0,0,0,0,0,0,0,0,0,0,0.100708,-0.8198242,-0.4621582,0,0,0,0,0,0
0.9233326,-0.5886101,0.7601256,0,0,0,0,0,0,0,0,0,0,0,0,0,0,0,0,0,0,0,0.1075439,-0.8037109,-0.498291,0,0,0,0,0,0
0.9266659,-0.6053018,0.7615088,0,0,0,0,0,0,0,0,0,0,0,0,0,0,0,0,0,0,0,0.09838867,-0.7950439,-0.4768066,0,0,0,0,0,0
0.9299992,-0.6220455,0.762886,0,0,0,0,0,0,0,0,0,0,0,0,0,0,0,0,0,0,0,0.1523438,-0.8583984,-0.5435791,0,0,0,0,0,0
0.9333326,-0.6304365,0.7635722,0,0,0,0,0,0,0,0,0,0,0,0,0,0,0,0,0,0,0,0.09277344,-0.7902832,-0.416748,0,0,0,0,0,0
0.9366659,-0.6479346,0.7735946,0,0,0,0,0,0,0,0,0,0,0,0,0,0,0,0,0,0,0,0.08447266,-0.7945557,-0.3054199,0,0,0,0,0,0
0.9399992,-0.6563607,0.7742698,0,0,0,0,0,0,0,0,0,0,0,0,0,0,0,0,0,0,0,0.04162598,-0.9162598,-0.2373047,0,0,0,0,0,0
0.9433326,-0.6570322,0.7829306,0.02742006,0.007014433,0,0,0,0,0,0,0,0,0,0,0,0,0,0,0,0,0,0.008422852,-1.003418,-0.1953125,0,0,0,0,0,0
0.9466659,-0.6654682,0.7835985,0.09986624,0.02200443,0,0,0,0,0,0,0,0,0,0,0,0,0,0,0,0,0,0.004516602,-1.078979,-0.1633301,0,0,0,0,0,0
0.9499992,-0.6745782,0.7929254,0.1358722,0.02636326,0,0,0,0,0,0,0,0,0,0,0,0,0,0,0,0,0,0.07055664,-1.227051,-0.1257324,0,0,0,0,0,0
0.9533325,-0.6843418,0.8109252,0.1812399,0.03059895,0,0,0,0,0,0,0,0,0,0,0,0,0,0,0,0,0,0.1136475,-1.272949,-0.09472656,0,0,0,0,0,0
0.9566659,-0.6959809,0.8550623,0.2359937,0.03447099,0,0,0,0,0,0,0,0,0,0,0,0,0,0,0,0,0,0.05639648,-1.130859,-0.1208496,0,0,0,0,0,0
0.9599992,-0.7062927,0.8818683,0.2817789,0.03700127,0,0,0,0,0,0,0,0,0,0,0,0,0,0,0.3076091,0.05922288,0.3530883,0.03259277,-1.015381,-0.1745605,0,0,0,0,0,0
0.9633325,-0.7062927,0.8818683,0.3276548,0.03907809,0,0,0,0,0,0,0,0,0,0,0,0,0,0,0.2955905,0.05796873,0.3573072,0.04516602,-1.013184,-0.3127441,0,0,0,0,0,0
0.9666659,-0.7062927,0.8818683,0.382786,0.04112577,0,0,0,0,0,0,0,0,0,0,0,0,0,0,0.2583607,0.04429041,0.3277952,0.09558105,-0.9724121,-0.3729248,0,0,0,0,0,0
0.9699992,-0.7062927,0.8818683,0.382786,0.04112577,0,0,0,0,0,0,0,0,0,0,0,0,0,0,0,0,0,0.09558105,-0.9724121,-0.3729248,0,0,0,0,0,0
0.9733325,-0.7062927,0.8818683,0.4287749,0.04255018,0,0,0,0,0,0,0,0,0,0,0,0,0,0,0,0,0,0.147583,-0.925293,-0.3658447,0,0,0,0,0,0
0.9766659,-0.7062927,0.8818683,0.4840004,0.04400004,0,0,0,0,0,0,0,0,0,0,0,0,0,0,0,0,0,0.1254883,-0.9517822,-0.3098145,0,0,0,0,0,0
0.9799992,-0.7147655,0.8824759,0.5300454,0.04503654,0,0,0,0,0,0,0,0,0,0,0,0,0,0,0,0,0,0.08398438,-1.203125,-0.401001,0,0,0,0,0,0
0.9833325,-0.7232483,0.8830822,0.5853203,0.04611614,0,0,0,0,0,0,0,0,0,0,0,1,0,0,0,0,0,0.04284668,-1.070313,-0.3511963,0,0,0,0,0,0
0.9866658,-0.7402433,0.8842907,0.6312588,0.03967913,0,0,0,0,0,0,0,0,0,0,0,1,0,0,0,0,0,0.009765625,-0.9686279,-0.2655029,0,0,0,0,0,0
0.9899992,-0.7560699,0.8680802,0.6493657,0,0,0,0,0,0,0,0,0,0,0,0,1,0,0,0,0,0,-0.003417969,-0.9553223,-0.1282959,0,0,0,0,0,0
0.9933325,-0.7798811,0.8438712,0.6588106,-0.03275854,0,0,0,0,0,0,0,0,0,0,0,1,0,0,0,0,0,-0.01782227,-0.9797363,0.04992676,0,0,0,0,0,0
0.9966658,-0.8031714,0.8111632,0.6600006,-0.08386748,0,0,0,0,0,0,0,0,0,0,0,1,0,0,0,0,0,-0.05200195,-1.087891,0.2366943,0,0,0,0,0,0
0.9999992,-0.8277996,0.7958074,0.6438721,-0.1345948,0,0,0,0,0,0,0,0,0,0,0,1,0,0,0,0,0,-0.06884766,-1.179932,0.3266602,0,0,0,0,0,0
1.003332,-0.8513149,0.7633857,0.6198178,-0.1848579,0,0,0,0,0,0,0,0,0,0,0,1,0,0,0,0,0,-0.06323242,-1.263428,0.2814941,0,0,0,0,0,0
1.006666,-0.8668616,0.7390295,0.5860836,-0.2121407,0,0,0,0,0,0,0,0,0,0,0,1,0,0,0,0,0,-0.04602051,-1.329224,0.1772461,0,0,0,0,0,0
1.009999,-0.8912154,0.7153703,0.5523694,-0.2316388,0,0,0,0,0,0,0,0,0,0,0,1,0,0,-0.06297544,-0.04059955,-0.1268736,-0.03308105,-1.355103,0.06079102,0,0,0,0,0,0
1.013332,-0.9069334,0.6911871,0.5096249,-0.2425112,0,0,0,0,0,0,0,0,0,0,0,1,0,0,-0.1414352,-0.05647413,-0.1824165,-0.01452637,-1.362305,-0.01635742,0,0,0,0,0,0
1.016666,-0.9315377,0.6676687,0.4589103,-0.2518831,0,0,0,0,0,0,0,0,0,0,0,1,0,0,-0.189913,-0.06821876,-0.2203991,-0.001708984,-1.317139,-0.06518555,0,0,0,0,0,0
1.019999,-0.9315377,0.6676687,0.4589103,-0.2518831,0,0,0,0,0,0,0,0,0,0,0,1,0,0,0,0,0,-0.001708984,-1.317139,-0.06518555,0,0,0,0,0,0
1.023332,-0.9468793,0.6352481,0.4168041,-0.2541489,0,0,0,0,0,0,0,0,0,0,0,1,0,0,0,0,0,0.01428223,-1.26062,-0.06811523,0,0,0,0,0,0
1.026666,-0.962338,0.6029587,0.3683359,-0.2621489,0,0,0,0,0,0,0,0,0,0,0,1,0,0,0,0,0,0.02832031,-1.237793,-0.02124023,0,0,0,0,0,0
1.029999,-0.9773847,0.5624949,0.3201667,-0.2619546,0,0,0,0,0,0,0,0,0,0,0,1,0,0,0,0,0,0.0501709,-1.246826,0.01501465,0,0,0,0,0,0
1.033332,-0.9931315,0.5304679,0.2736998,-0.2611159,0,0,0,0,0,0,0,0,0,0,0,1,0,0,0,0,0,0.07836914,-1.269897,0.04296875,0,0,0,0,0,0
1.036666,-1,0.4980331,0.2428098,-0.255104,0,0,0,0,0,0,0,0,0,0,0,1,0,0,0,0,0,0.1048584,-1.26355,0.07067871,0,0,0,0,0,0
1.039999,-1,0.4657205,0.2202481,-0.2504191,0,0,0,0,0,0,0,0,0,0,0,1,0,0,0,0,0,0.1092529,-1.238892,0.08666992,0,0,0,0,0,0
1.043332,-1,0.4416777,0.2055263,-0.2472273,0,0,0,0,0,0,0,0,0,0,0,1,0,0,0,0,0,0.09033203,-1.185791,0.08898926,0,0,0,0,0,0
1.046666,-1,0.4091095,0.1910792,-0.2439935,0,0,0,0,0,0,0,0,0,0,0,1,0,0,0,0,0,0.06298828,-1.120483,0.07714844,0,0,0,0,0,0
1.049999,-1,0.3847782,0.1910792,-0.2439935,0,0,0,0,0,0,0,0,0,0,0,1,0,0,0,0,0,0.04187012,-1.073853,0.07214355,0,0,0,0,0,0
1.053332,-1,0.3605264,0.1910792,-0.2439935,0,0,0,0,0,0,0,0,0,0,0,1,0,0,-0.1044522,0.0294865,-0.172421,0.01489258,-1.028931,0.06860352,0,0,0,0,0,0
1.056666,-1,0.3444016,0.1910792,-0.2439935,0,0,0,0,0,0,0,0,0,0,0,0,0,0,-0.08895926,0.04747825,-0.1561785,-0.007446289,-1.016235,0.05273438,0,0,0,0,0,0
1.059999,-1,0.3202776,0.1910792,-0.2439935,0,0,0,0,0,0,0,0,0,0,0,0,0,0,-0.07543211,0.05513234,-0.1294111,-0.002075195,-1.002686,0.01757813,0,0,0,0,0,0
1.063332,-1,0.3202776,0.1910792,-0.2439935,0,0,0,0,0,0,0,0,0,0,0,0,0,0,0,0,0,-0.002075195,-1.002686,0.01757813,0,0,0,0,0,0
1.066666,-1,0.3042357,0.1894373,-0.236068,0,0,0,0,0,0,0,0,0,0,0,0,0,0,0,0,0,0.01025391,-0.9750977,-0.02807617,0,0,0,0,0,0
1.069999,-1,0.2962267,0.2022516,-0.2315634,0,0,0,0,0,0,0,0,0,0,0,0,0,0,0,0,0,0.02685547,-0.9434814,-0.04125977,0,0,0,0,0,0
1.073332,-1,0.2882255,0.2161506,-0.1988586,0,0,0,0,0,0,0,0,0,0,0,0,0,0,0,0,0,0.04675293,-0.9616699,0.003173828,0,0,0,0,0,0
1.076666,-1,0.2882255,0.2455903,-0.1646899,0,0,0,0,0,0,0,0,0,0,0,0,0,0,0,0,0,0.05078125,-0.9620361,-0.007080078,0,0,0,0,0,0
1.079999,-1,0.2882255,0.2849734,-0.1204527,0,0,0,0,0,0,0,0,0,0,0,0,0,0,0,0,0,0.01428223,-0.9417725,-0.05505371,0,0,0,0,0,0
1.083332,-1,0.2882255,0.3323455,-0.0884222,0,0,0,0,0,0,0,0,0,0,0,0,0,0,0,0,0,-0.01489258,-0.9250488,-0.09240723,0,0,0,0,0,0
1.086666,-1,0.2882255,0.40091,-0.03528008,0,0,0,0,0,0,0,0,0,0,0,0,0,0,0,0,0,-0.009399414,-0.916748,-0.1303711,0,0,0,0,0,0
1.089999,-1,0.2882255,0.46519,0.03012022,0,0,0,0,0,0,0,0,0,0,0,1,0,0,0,0,0,0.008422852,-0.9108887,-0.1743164,0,0,0,0,0,0
1.093332,-1,0.2882255,0.5504193,0.0946581,0,0,0,0,0,0,0,0,0,0,0,1,0,0,0,0,0,0.0333252,-0.925293,-0.2185059,0,0,0,0,0,0
1.096666,-1,0.2882255,0.6460491,0.1715498,0,0,0,0,0,0,0,0,0,0,0,1,0,0,0,0,0,0.04333496,-0.939209,-0.2359619,0,0,0,0,0,0
1.099999,-1,0.2882255,0.7226676,0.2358967,0,0,0,0,0,0,0,0,0,0,0,1,0,0,-0.1139455,0.04336387,-0.04197992,0.03466797,-0.9370117,-0.192627,0,0,0,0,0,0
1.103332,-1,0.2882255,0.7901456,0.3015531,0,0,0,0,0,0,0,0,0,0,0,1,0,0,-0.1269419,0.04198077,-0.04023157,0.06298828,-0.96521,-0.1773682,0,0,0,0,0,0
1.106666,-1,0.2882255,0.7901456,0.3015531,0,0,0,0,0,0,0,0,0,0,0,1,0,0,0,0,0,0.06298828,-0.96521,-0.1773682,0,0,0,0,0,0
1.109999,-1,0.3042357,0.8474187,0.3521238,0,0,0,0,0,0,0,0,0,0,0,1,0,0,0,0,0,0.08410645,-0.9703369,-0.1571045,0,0,0,0,0,0
1.113332,-1,0.3122526,0.8765361,0.3856759,0,0,0,0,0,0,0,0,0,0,0,1,0,0,0,0,0,0.1092529,-0.96875,-0.1461182,0,0,0,0,0,0
1.116666,-1,0.336352,0.8776053,0.4017482,0,0,0,0,0,0,0,0,0,0,0,1,0,0,0,0,0,0.1600342,-0.9713135,-0.1207275,0,0,0,0,0,0
1.119999,-1,0.3605264,0.8776053,0.4017482,0,0,0,0,0,0,0,0,0,0,0,1,0,0,0,0,0,0.2028809,-0.9906006,-0.1309814,0,0,0,0,0,0
1.123332,-1,0.3847782,0.8148872,0.3977886,0,0,0,0,0,0,0,0,0,0,0,1,0,0,0,0,0,0.1967773,-0.9606934,-0.1737061,0,0,0,0,0,0
1.126666,-1,0.4172379,0.6155147,0.3354002,0,0,0,0,0,0,0,0,0,0,0,1,0,0,0,0,0,0.1799316,-0.927002,-0.2492676,0,0,0,0,0,0
1.129999,-1,0.4498426,0.1884164,0.1213092,0,0,0,0,0,0,0,0,0,0,0,1,0,0,0,0,0,0.1860352,-0.9436035,-0.3237305,0,0,0,0,0,0
1.133332,-1,0.4743927,-0.1710709,-0.08914962,0,0,0,0,0,0,0,0,0,0,0,1,0,0,0,0,0,0.3682861,-1.042114,-0.2547607,0,0,0,0,0,0
1.136666,-1,0.5149953,0,0,0,0,0,0,0,0,0,0,0,0,0,1,0,0,0,0,0,0.2536621,-0.8314209,-0.4825439,0,0,0,0,0,0
1.139999,-1,0.5392466,0,0,0,0,0,0,0,0,0,0,0,0,0,1,0,0,0,0,0,0.1624756,-0.84375,-0.5228271,0,0,0,0,0,0
1.143332,-0.9868394,0.5713281,0,0,0,0,0,0,0,0,0,0,0,0,0,1,0,0,0,0,0,0.3736572,-1.058594,-0.3614502,0,0,0,0,0,0
1.146666,-0.979558,0.5957312,0,0,0,0,0,0,0,0,0,0,0,0,0,1,0,0,0,0,0,0.1895752,-0.9748535,-0.4901123,0,0,0,0,0,0
1.149999,-0.9634567,0.6196507,0,0,0,0,0,0,0,0,0,0,0,0,0,1,0,0,0,0,0,0.1960449,-1.042114,-0.4000244,0,0,0,0,0,0
1.153332,-0.9557259,0.6358177,0,0,0,0,0,0,0,0,0,0,0,0,0,1,0,0,0,0,0,0.1573486,-1.003296,-0.2833252,0,0,0,0,0,0
1.156666,-0.9397725,0.6598403,0,0,0,0,0,0,0,0,0,0,0,0,0,1,0,0,0,0,0,0.1424561,-1.038696,-0.2202148,0,0,0,0,0,0
1.159999,-0.9244941,0.6923701,0,0,0,0,0,0,0,0,0,0,0,0,0,1,0,0,0,0,0,0.09643555,-1.152222,-0.1625977,0,0,0,0,0,0
1.163332,-0.8999631,0.7159706,0,0,0,0,0,0,0,0,1,0,0,0,0,1,0,0,0,0,0,0.04431152,-0.8834229,-0.1549072,0,0,0,0,0,0
1.166666,-0.8761782,0.7481521,0,0,0,0,0,0,0,0,1,0,0,0,0,1,0,0,0,0,0,0.01086426,-0.8482666,-0.1801758,0,0,0,0,0,0
1.169999,-0.8432577,0.771321,0,0,0,0,0,0,0,0,1,0,0,0,0,1,0,0,0,0,0,-0.01586914,-0.7640381,-0.1757813,0,0,0,0,0,0
1.173332,-0.810544,0.7945727,0,0,0,0,0,0,0,0,1,0,0,0,0,1,0,0,-0.04822791,0.1184458,0.09745537,-0.04943848,-0.670166,-0.1721191,0,0,0,0,0,0
1.176666,-0.7694606,0.8173026,0,0,0,0,0,0,0,0,1,0,0,0,0,1,0,0,-0.04248054,0.1306901,0.06671944,-0.07971191,-0.6459961,-0.1761475,0,0,0,0,0,0
1.179999,-0.7286666,0.8401566,0,0,0,0,0,0,0,0,1,0,0,0,0,0,0,0,-0.03229224,0.1303223,0.0403653,-0.0748291,-0.6947021,-0.1895752,0,0,0,0,0,0
1.183332,-0.7286666,0.8401566,0,0,0,0,0,0,0,0,1,0,0,0,0,0,0,0,0,0,0,-0.0748291,-0.6947021,-0.1895752,0,0,0,0,0,0
1.186666,-0.696602,0.8637865,0,0,0,0,0,0,0,0,1,0,0,0,0,0,0,0,0,0,0,-0.0411377,-0.7434082,-0.1842041,0,0,0,0,0,0
1.189999,-0.646654,0.8688172,0,0,0,0,0,0,0,0,1,0,0,0,0,0,0,0,0,0,0,0.003051758,-0.7504883,-0.192627,0,0,0,0,0,0
1.193332,-0.5964825,0.865097,0,0,0,0,0,0,0,0,1,0,0,0,0,0,0,0,0,0,0,0.0904541,-0.8343506,-0.2780762,0,0,0,0,0,0
1.196666,-0.538474,0.8607723,0,0,0,0,0,0,0,0,1,0,0,0,0,0,0,0,0,0,0,0.1711426,-0.8295898,-0.4428711,0,0,0,0,0,0
1.199999,-0.4810575,0.856517,0,0,0,0,0,0,0,0,1,0,0,0,0,0,0,0,0,0,0,0.1871338,-0.7926025,-0.4058838,0,0,0,0,0,0
1.203332,-0.4000963,0.8506902,0,0,0,0,0,0,0,0,1,0,0,0,0,0,0,0,0,0,0,0.1573486,-0.7675781,-0.3867188,0,0,0,0,0,0
1.206666,-0.3262163,0.8097839,0,0,0,0,0,0,0,0,1,0,0,0,0,0,0,0,0,0,0,0.07006836,-0.751709,-0.4372559,0,0,0,0,0,0
1.209999,-0.2455857,0.7594265,0,0,0,0,0,0,0,0,1,0,0,0,0,0,0,0,0,0,0,0.009399414,-0.7647705,-0.4290771,0,0,0,0,0,0
1.213332,-0.1584328,0.6816294,0,0,0,0,0,0,0,0,1,0,0,0,0,0,0,0,0,0,0,0.0111084,-0.7932129,-0.3659668,0,0,0,0,0,0
1.216666,-0.08174966,0.586465,0,0,0,0,0,0,0,0,1,0,0,0,0,0,0,0,0,0,0,0.0723877,-0.8905029,-0.3309326,0,0,0,0,0,0
1.219999,0,0.5017301,0,0,0,0,0,0,0,0,1,0,0,0,0,0,0,0,0.2381409,0.03823249,-0.01124485,0.1462402,-1.02356,-0.3150635,0,0,0,0,0,0
1.223332,0.0542708,0.3926652,0,0,0,0,0,0,0,0,1,0,0,0,0,0,0,0,0.2343494,0.02629511,0.0009226355,0.1673584,-1.14624,-0.2646484,0,0,0,0,0,0
1.226666,0.09744173,0.2982307,0,0,0,0,0,0,0,0,1,0,0,0,0,0,0,0,0.2468869,0.01674233,0.01349382,0.1685791,-1.279419,-0.1873779,0,0,0,0,0,0
1.229999,0.09744173,0.2982307,0,0,0,0,0,0,0,0,1,0,0,0,0,0,0,0,0,0,0,0.1685791,-1.279419,-0.1873779,0,0,0,0,0,0
1.233332,0.1219108,0.2194394,0,0,0,0,0,0,0,0,1,0,0,0,0,0,0,0,0,0,0,0.1732178,-1.369507,-0.1279297,0,0,0,0,0,0
1.236666,0.1355773,0.1503675,0,0,0,0,0,0,0,0,1,0,0,0,0,0,0,0,0,0,0,0.1812744,-1.425537,-0.08129883,0,0,0,0,0,0
1.239999,0.149212,0.1113169,0,0,0,0,0,0,0,0,1,0,0,0,0,0,0,0,0,0,0,0.1779785,-1.438721,-0.02429199,0,0,0,0,0,0
1.243332,0.1485624,0.08913743,0,0,0,0,0,0,0,0,1,0,0,0,0,0,0,0,0,0,0,0.182373,-1.415039,0.01257324,0,0,0,0,0,0
1.246666,0.1489538,0.06891891,0,0,0,0,0,0,0,0,1,0,0,0,0,0,0,0,0,0,0,0.1928711,-1.373901,-0.002075195,0,0,0,0,0,0
1.249999,0.1524231,0.05522576,0,0,0,0,0,0,0,0,1,0,0,0,0,0,0,0,0,0,0,0.2000732,-1.313965,-0.04443359,0,0,0,0,0,0
1.253332,0.1570942,0.04203929,0,0,0,0,0,0,0,0,1,0,0,0,0,0,0,0,0,0,0,0.1862793,-1.237427,-0.0859375,0,0,0,0,0,0
1.256666,0.1721429,0.0298381,0,0,0,0,0,0,0,0,1,0,0,0,0,0,0,0,0,0,0,0.166748,-1.16748,-0.1044922,0,0,0,0,0,0
1.259999,0.1795021,0.01631838,0,0,0,0,0,0,0,0,1,0,0,0,0,0,0,0,-0.005747368,-0.04023157,0.01524302,0.1546631,-1.127808,-0.105835,0,0,0,0,0,0
1.263332,0.1880046,0,0,0,0,0,0,0,0,0,1,0,0,0,0,0,0,0,0.003921547,-0.03713936,0.01176464,0.1483154,-1.131348,-0.1101074,0,0,0,0,0,0
1.266666,0.1975671,-0.0121955,0,0,0,0,0,0,0,0,1,0,0,0,0,0,0,0,0.01174462,-0.03923203,0.009495651,0.1401367,-1.135498,-0.08850098,0,0,0,0,0,0
1.269999,0.1994617,-0.03201236,0,0,0,0,0,0,0,0,1,0,0,0,0,0,0,0,0.01799176,-0.03473409,0.009245765,0.1342773,-1.148315,-0.06445313,0,0,0,0,0,0
1.273332,0.1994617,-0.03201236,0,0,0,0,0,0,0,0,1,0,0,0,0,0,0,0,0,0,0,0.1342773,-1.148315,-0.06445313,0,0,0,0,0,0
1.276666,0.2109087,-0.04828029,0,0,0,0,0,0,0,0,1,0,0,0,0,0,0,0,0,0,0,0.1357422,-1.158569,-0.05944824,0,0,0,0,0,0
1.279999,0.2218123,-0.06001979,0,0,0,0,0,0,0,0,1,0,0,0,0,0,0,0,0,0,0,0.1362305,-1.177002,-0.08813477,0,0,0,0,0,0
1.283332,0.2239675,-0.07114263,0,0,0,0,0,0,0,0,1,0,0,0,0,0,0,0,0,0,0,0.1103516,-1.169434,-0.08959961,0,0,0,0,0,0
1.286666,0.2239675,-0.07114263,0,0,0,0,0,0,0,0,1,0,0,0,0,0,0,0,0,0,0,-0.06298828,-1.233032,0.09240723,0,0,0,0,0,0
1.289999,0.2239675,-0.07114263,0,0,0,0,0,0,0,0,1,0,0,0,0,0,0,0,0,0,0,0.06384277,-1.311157,0.1497803,0,0,0,0,0,0
1.293332,0.2239675,-0.07114263,0,0,0,0,0,0,0,0,1,0,0,0,0,0,0,0,0,0,0,-0.02954102,-1.214844,0.1147461,0,0,0,0,0,0
1.296666,0.2239675,-0.07114263,0,0,0,0,0,0,0,0,1,0,0,0,0,1,0,0,0,0,0,-0.03881836,-1.228027,0.1143799,0,0,0,0,0,0
1.299999,0.2239675,-0.07114263,0,0,0,0,0,0,0,0,1,0,0,0,0,1,0,0,0,0,0,0.04223633,-1.186646,0.1352539,0,0,0,0,0,0
1.303332,0.2166672,-0.02294124,0,0,0,0,0,0,0,0,1,0,0,0,0,1,0,0,-0.2004082,0.04622883,-0.04872768,0.06933594,-1.11084,0.1911621,0,0,0,0,0,0
1.306666,0.2199364,0.04916225,0,0,0,0,0,0,0,0,1,0,0,0,0,1,0,0,0,0,0,-0.07226563,-1.174683,0.1466064,0,0,0,0,0,0
1.309999,0.2189449,0.08705039,0,0,0,0,0,0,0,0,1,0,0,0,0,1,0,0,0,0,0,0.09887695,-1.15918,-0.02331543,0,0,0,0,0,0
1.313332,0.2325748,0.1429074,0,0,0,0,0,0,0,0,1,0,0,0,0,1,0,0,0,0,0,0.2026367,-1.088257,-0.2558594,0,0,0,0,0,0
1.316666,0.2439935,0.1910792,0,0,0,0,0,0,0,0,1,0,0,0,0,1,0,0,0,0,0,0.2028809,-1.063477,-0.4650879,0,0,0,0,0,0
1.319999,0.255104,0.2428098,0,0,0,0,0,0,0,0,0,0,0,0,0,1,0,0,0,0,0,0.1923828,-0.9814453,-0.6066895,0,0,0,0,0,0
1.323332,0.2640089,0.2894556,0,0,0,0,0,0,0,0,0,0,0,0,0,1,0,0,0,0,0,0.1939697,-0.890625,-0.6544189,0,0,0,0,0,0
1.326666,0.270888,0.3296348,0,0,0,0,0,0,0,0,0,0,0,0,0,1,0,0,0,0,0,0.1981201,-0.9177246,-0.6202393,0,0,0,0,0,0
1.329999,0.2621489,0.3683359,0,0,0,0,0,0,0,0,0,0,0,0,0,1,0,0,0,0,0,0.2017822,-0.8942871,-0.5689697,0,0,0,0,0,0
1.333332,0.2456332,0.4071454,0,0,0,0,0,0,0,0,0,0,0,0,0,1,0,0,-0.01524426,-0.04198419,-0.03698608,0.1972656,-0.8863525,-0.5063477,0,0,0,0,0,0
1.336666,0.2214477,0.4463023,0,0,0,0,0,0,0,0,0,0,0,0,0,1,0,0,-0.004382519,-0.0572034,-0.03852003,0.1734619,-0.8984375,-0.4512939,0,0,0,0,0,0
1.339999,0.1903993,0.4950383,0,0,0,0,0,0,0,0,0,0,0,0,0,1,0,0,-0.001999084,-0.07921372,-0.04697848,0.1563721,-0.8905029,-0.4230957,0,0,0,0,0,0
1.343332,0.1709375,0.5197895,0,0,0,0,0,0,0,0,0,0,0,0,0,1,0,0,0,-0.08920915,-0.05272585,0.1359863,-0.8544922,-0.3979492,0,0,0,0,0,0
1.346666,0.1709375,0.5197895,0,0,0,0,0,0,0,0,0,0,0,0,0,1,0,0,0,0,0,0.1359863,-0.8544922,-0.3979492,0,0,0,0,0,0
1.349999,0.1440308,0.5445065,0,0,0,0,0,0,0,0,0,0,0,0,0,1,0,0,0,0,0,0.1313477,-0.8138428,-0.3681641,0,0,0,0,0,0
1.353332,0.1163874,0.5607758,-0.02128552,-0.01036987,0,0,0,0,0,0,0,0,0,0,0,1,0,0,0,0,0,0.1329346,-0.7944336,-0.3153076,0,0,0,0,0,0
1.356665,0.1025115,0.5691156,-0.1181869,-0.06610452,0,0,0,0,0,0,0,0,0,0,0,1,0,0,0,0,0,0.1187744,-0.7989502,-0.2508545,0,0,0,0,0,0
1.359999,0.08174966,0.586465,-0.2325748,-0.1429074,0,0,0,0,0,0,0,0,0,0,0,1,0,0,0,0,0,0.1054688,-0.8355713,-0.1829834,0,0,0,0,0,0
1.363332,0.0677098,0.5951335,-0.3719145,-0.2336808,0,0,0,0,0,0,0,0,0,0,0,1,0,0,0,0,0,0.1065674,-0.8939209,-0.131958,0,0,0,0,0,0
1.366665,0.05378349,0.6131318,-0.5022469,-0.3241451,0,0,0,0,0,0,0,0,0,0,0,1,0,0,0,0,0,0.1043701,-0.9499512,-0.06433105,0,0,0,0,0,0
1.369999,0.03235434,0.6219223,-0.6401176,-0.4080282,0,0,0,0,0,0,0,0,0,0,0,1,0,0,0,0,0,0.05285645,-0.9829102,0.02880859,0,0,0,0,0,0
1.373332,0.01808499,0.6402088,-0.7673236,-0.4665636,0,0,0,0,0,0,0,0,0,0,0,1,0,0,0,0,0,-0.01293945,-1.039673,0.05053711,0,0,0,0,0,0
1.376665,0.003627756,0.6493684,-0.8843827,-0.4991849,0,0,0,0,0,0,0,0,0,0,0,1,0,0,0,0,0,-0.03125,-1.088379,0.0456543,0,0,0,0,0,0
1.379999,-0.01830032,0.6771117,-0.9557601,-0.5036578,0,0,0,0,0,0,0,0,0,0,0,1,0,0,0,0,0,0.03430176,-1.105957,0.0567627,0,0,0,0,0,0
1.383332,-0.03312864,0.6957015,-0.9647085,-0.5041893,0,0,0,0,0,0,0,0,0,0,0,1,0,0,0,0,0,0.08776855,-1.098877,-0.002319336,0,0,0,0,0,0
1.386665,-0.04835694,0.7327936,-0.9790874,-0.4479225,0,0,0,0,0,0,0,0,0,0,0,1,0,0,-0.02606445,0.006919767,0.005997131,0.0111084,-1.002319,-0.1030273,0,0,0,0,0,0
1.389999,-0.0637046,0.7607079,-0.9952164,-0.4163256,0,0,0,0,0,0,0,0,0,0,0,1,0,0,-0.04198077,0.009495651,-0.0002498855,-0.02404785,-0.9475098,-0.1744385,0,0,0,0,0,0
1.393332,-0.0637046,0.7607079,-0.9952164,-0.4163256,0,0,0,0,0,0,0,0,0,0,0,1,0,0,0,0,0,-0.02404785,-0.9475098,-0.1744385,0,0,0,0,0,0
1.396665,-0.08699018,0.7980403,-1,-0.3847782,0,0,0,0,0,0,0,0,0,0,0,1,0,0,0,0,0,-0.005981445,-0.8963623,-0.1762695,0,0,0,0,0,0
1.399999,-0.1106287,0.8354372,-1,-0.3524597,0,0,0,0,0,0,0,0,0,0,0,1,0,0,0,0,0,-0.005249023,-0.8913574,-0.1705322,0,0,0,0,0,0
1.403332,-0.1343516,0.8636888,-1,-0.3283107,0,0,0,0,0,0,0,0,0,0,0,1,0,0,0,0,0,0.04797363,-0.873291,-0.1861572,0,0,0,0,0,0
1.406665,-0.1583184,0.891989,-1,-0.2962267,0,0,0,0,0,0,0,0,0,0,0,1,0,0,0,0,0,0.04345703,-0.9072266,-0.208252,0,0,0,0,0,0
1.409999,-0.1825119,0.920326,-1,-0.2722459,0,0,0,0,0,0,0,0,0,0,0,1,0,0,0,0,0,0.03857422,-0.9044189,-0.2253418,0,0,0,0,0,0
1.413332,-0.1990468,0.9483994,-1,-0.2403741,0,0,0,0,0,0,0,0,0,0,0,1,0,0,0,0,0,0.02355957,-0.8933105,-0.2662354,0,0,0,0,0,0
1.416665,-0.2232947,0.9676104,-1,-0.2165419,0,0,0,0,0,0,0,0,0,0,0,1,0,0,0,0,0,0.0144043,-0.8707275,-0.3083496,0,0,0,0,0,0
1.419999,-0.239756,0.9865369,-1,-0.1927661,0,0,0,0,0,0,0,0,0,0,0,1,0,0,0,0,0,0.009033203,-0.8613281,-0.3199463,0,0,0,0,0,0
1.423332,-0.2559725,0.9963236,-1,-0.1690417,0,0,0,0,0,0,0,0,0,0,0,1,0,0,0,0,0,0.007324219,-0.876709,-0.3110352,0,0,0,0,0,0
1.426665,-0.2722459,1,-1,-0.1532514,0,0,0,0,0,0,0,0,0,0,0,1,0,0,0,0,0,-0.02600098,-0.8989258,-0.1408691,0,0,0,0,0,0
1.429999,-0.2802319,1,-1,-0.1453634,0,0,0,0,0,0,0,0,0,0,0,1,0,0,0,0,0,-0.04541016,-0.9599609,-0.2419434,0,0,0,0,0,0
1.433332,-0.2802319,1,-1,-0.1453634,0,0,0,0,0,0,0,0,0,0,0,1,0,0,0,0,0,0.009155273,-1.059448,-0.1893311,0,0,0,0,0,0
1.436665,-0.2882255,1,-1,-0.1453634,0,0,0,0,0,0,0,0,0,0,0,1,0,0,-0.1296303,-0.02444984,-0.009457015,0.08215332,-1.06958,-0.1928711,0,0,0,0,0,0
1.439999,-0.2882255,1,-1,-0.1453634,0,0,0,0,0,0,0,0,0,0,0,1,0,0,-0.1634251,-0.03423432,-0.001999084,0.1113281,-1.043945,-0.2644043,0,0,0,0,0,0
1.443332,-0.2882255,1,-1,-0.1453634,0,0,0,0,0,0,0,0,0,0,0,1,0,0,-0.1824165,-0.04872768,0,0.1135254,-0.9838867,-0.3510742,0,0,0,0,0,0
1.446665,-0.2882255,1,-1,-0.1453634,0,0,0,0,0,0,0,0,0,0,0,1,0,0,-0.1753162,-0.05720845,-0.001384075,0.08605957,-0.8905029,-0.4278564,0,0,0,0,0,0
1.449999,-0.2882255,1,-1,-0.1453634,0,0,0,0,0,0,0,0,0,0,0,1,0,0,0,0,0,0.08605957,-0.8905029,-0.4278564,0,0,0,0,0,0
1.453332,-0.2882255,1,-1,-0.1532514,0,0,0,0,0,0,0,0,0,0,0,1,0,0,0,0,0,0.06884766,-0.8438721,-0.465332,0,0,0,0,0,0
1.456665,-0.2882255,1,-1,-0.1769445,0,0,0,0,0,0,0,0,0,0,0,1,0,0,0,0,0,0.05969238,-0.8415527,-0.463623,0,0,0,0,0,0
1.459999,-0.2882255,1,-1,-0.2006854,0,0,0,0,0,0,0,0,0,0,0,1,0,0,0,0,0,0.06164551,-0.831665,-0.4500732,0,0,0,0,0,0
1.463332,-0.2802319,1,-1,-0.2324234,0,0,0,0,0,0,0,0,0,0,0,1,0,0,0,0,0,0.0625,-0.8128662,-0.4138184,0,0,0,0,0,0
1.466665,-0.2802319,1,-1,-0.2722459,0,0,0,0,0,0,0,0,0,0,0,1,0,0,0,0,0,0.05773926,-0.7902832,-0.3499756,0,0,0,0,0,0
1.469999,-0.2802319,1,-1,-0.3042357,0,0,0,0,0,0,0,0,0,0,0,1,0,0,0,0,0,0.05371094,-0.7901611,-0.2711182,0,0,0,0,0,0
1.473332,-0.2802319,1,-1,-0.3444016,0,0,0,0,0,0,0,0,0,0,0,1,0,0,0,0,0,0.05212402,-0.8077393,-0.2208252,0,0,0,0,0,0
1.476665,-0.2802319,1,-1,-0.3766855,0,0,0,0,0,0,0,0,0,0,0,1,0,0,0,0,0,0.02209473,-0.8260498,-0.1895752,0,0,0,0,0,0
1.479999,-0.2802319,1,-1,-0.4009901,0,0,0,0,0,0,0,0,0,0,0,1,0,0,0,0,0,0.004394531,-0.8153076,-0.1568604,0,0,0,0,0,0
1.483332,-0.2882255,1,-1,-0.4253754,0,0,0,0,0,0,0,0,0,0,0,1,0,0,0,0,0,-0.01672363,-0.7935791,-0.1363525,0,0,0,0,0,0
1.486665,-0.2882255,1,-1,-0.4416777,0,0,0,0,0,0,0,0,0,0,0,1,0,0,-0.07421601,-0.07146727,-0.09795514,-0.0411377,-0.8013916,-0.1602783,0,0,0,0,0,0
1.489999,-0.2882255,1,-1,-0.4493711,0,0,0,0,0,0,0,0,0,0,0,1,0,0,-0.05674709,-0.06020728,-0.09365577,-0.04675293,-0.8033447,-0.1872559,0,0,0,0,0,0
1.493332,-0.2882255,1,-1,-0.4493711,0,0,0,0,0,0,0,0,0,0,0,1,0,0,0,0,0,-0.04675293,-0.8033447,-0.1872559,0,0,0,0,0,0
1.496665,-0.2962267,1,-1,-0.4657205,0,0,0,0,0,0,0,0,0,0,0,1,0,0,0,0,0,-0.02380371,-0.8469238,-0.1669922,0,0,0,0,0,0
1.499999,-0.3042357,1,-1,-0.481615,0,0,0,0,0,0,0,0,0,0,0,1,0,0,0,0,0,0.01940918,-0.8861084,-0.1387939,0,0,0,0,0,0
1.503332,-0.3042357,1,-0.9910758,-0.497528,0,0,0,0,0,0,0,0,0,0,0,1,0,0,0,0,0,0.0411377,-0.9779053,-0.1481934,0,0,0,0,0,0
1.506665,-0.3122526,1,-0.9826212,-0.5052344,0,0,0,0,0,0,0,0,0,0,0,0,0,0,0,0,0,0.05822754,-0.9975586,-0.1820068,0,0,0,0,0,0
1.509999,-0.3202776,1,-0.9752428,-0.5294175,0,0,0,0,0,0,0,0,0,0,0,0,0,0,0,0,0,0.06152344,-0.996582,-0.2139893,0,0,0,0,0,0
1.513332,-0.3202776,1,-0.9590133,-0.5531238,0,0,0,0,0,0,0,0,0,0,0,0,0,0,0,0,0,0.0703125,-0.9554443,-0.2305908,0,0,0,0,0,0
1.516665,-0.3283107,1,-0.9512189,-0.5691394,0,0,0,0,0,0,0,0,0,0,0,0,0,0,0,0,0,0.100708,-0.9936523,-0.28479,0,0,0,0,0,0
1.519999,-0.3283107,1,-0.9351605,-0.5929316,0,0,0,0,0,0,0,0,0,0,0,0,0,0,0,0,0,0.112793,-0.8516846,-0.375,0,0,0,0,0,0
1.523332,-0.3283107,1,-0.919205,-0.6167826,0,0,0,0,0,0,0,0,0,0,0,0,0,0,0,0,0,0.1113281,-0.8688965,-0.3132324,0,0,0,0,0,0
1.526665,-0.336352,1,-0.8945485,-0.6400992,0,0,0,0,0,0,0,0,0,0,0,0,0,0,0,0,0,0.1430664,-0.8736572,-0.2432861,0,0,0,0,0,0
1.529999,-0.3444016,1,-0.8782014,-0.6556707,0,0,0,0,0,0,0,0,0,0,0,0,0,0,0,0,0,0.1063232,-0.8702393,-0.2529297,0,0,0,0,0,0
1.533332,-0.3439986,1,-0.8625466,-0.6797026,0,0,0,0,0,0,0,0,0,0,0,0,0,0,0,0,0,0.07617188,-0.8991699,-0.2415771,0,0,0,0,0,0
1.536665,-0.3596902,0.9921125,-0.8302128,-0.7110435,0,0,0,0,0,0,0,0,0,0,0,0,0,0,0,0,0,0.09399414,-0.9443359,-0.2010498,0,0,0,0,0,0
1.539999,-0.3673211,0.9834726,-0.7789322,-0.7156687,0,0,0,0,0,0,0,0,0,0,0,0,0,0,-0.01430085,-0.05259022,0.03113895,0.1040039,-0.965332,-0.2102051,0,0,0,0,0,0
1.543332,-0.3834635,0.9843547,-0.7095886,-0.7017478,0,0,0,0,0,0,0,0,0,0,0,0,0,0,-0.01349382,-0.05722379,0.04572906,0.1148682,-0.9805908,-0.2591553,0,0,0,0,0,0
1.546665,-0.3834635,0.9843547,-0.7095886,-0.7017478,0,0,0,0,0,0,0,0,0,0,0,0,0,0,0,0,0,0.1148682,-0.9805908,-0.2591553,0,0,0,0,0,0
1.549999,-0.4072818,0.9766853,-0.6057426,-0.6674744,0,0,0,0,0,0,0,0,0,0,0,0,0,0,0,0,0,0.1079102,-0.9793701,-0.2828369,0,0,0,0,0,0
1.553332,-0.4230275,0.9686143,-0.4921693,-0.5973658,0,0,0,0,0,0,0,0,0,0,0,0,0,0,0,0,0,0.08081055,-0.9707031,-0.279541,0,0,0,0,0,0
1.556665,-0.4469274,0.9610918,-0.3543717,-0.4975522,0,0,0,0,0,0,0,0,0,0,0,0,0,0,0,0,0,0.0793457,-0.984375,-0.2686768,0,0,0,0,0,0
1.559999,-0.4790651,0.954171,-0.1998466,-0.3833124,0,0,0,0,0,0,0,0,0,0,0,0,0,0,0,0,0,0.06970215,-0.9921875,-0.2503662,0,0,0,0,0,0
1.563332,-0.5031205,0.9468173,-0.05547866,-0.2298402,0,0,0,0,0,0,0,0,0,0,0,0,0,0,0,0,0,0.04663086,-0.9906006,-0.2198486,0,0,0,0,0,0
1.566665,-0.5354926,0.9400869,0.02799517,-0.09386617,0,0,0,0,0,0,0,0,0,0,0,0,0,0,0,0,0,0.002929688,-0.9538574,-0.1732178,0,0,0,0,0,0
1.569999,-0.5768758,0.9428936,0.08713468,-0.05638127,0,0,0,0,0,0,0,0,0,0,0,1,0,0,0,0,0,0.02307129,-0.7662354,-0.2181396,0,0,0,0,0,0
1.573332,-0.6179457,0.9368855,0.2109087,-0.04828029,0,0,0,0,0,0,0,0,0,0,0,1,0,0,0,0,0,0.0645752,-0.7493896,-0.2714844,0,0,0,0,0,0
1.576665,-0.6676687,0.9315377,0.3365003,-0.03334688,0,0,0,0,0,0,0,0,0,0,0,1,0,0,0,0,0,0.114624,-0.7519531,-0.286377,0,0,0,0,0,0
1.579999,-0.6911871,0.9069334,0.4648258,-0.003344071,0,0,0,0,0,0,0,0,0,0,0,1,0,0,0,0,0,0.1434326,-0.7791748,-0.2637939,0,0,0,0,0,0
1.583332,-0.731741,0.8836871,0.5942581,0.03202588,0,0,0,0,0,0,0,0,0,0,0,1,0,0,0,0,0,0.1531982,-0.7788086,-0.2490234,0,0,0,0,0,0
1.586665,-0.7633857,0.8513149,0.7330641,0.06325933,0,0,0,0,0,0,0,0,0,0,0,1,0,0,0,0,0,0.1219482,-0.7618408,-0.2581787,0,0,0,0,0,0
1.589999,-0.7951917,0.8191673,0.8630394,0.1112362,0,0,0,0,0,0,0,0,0,0,0,1,0,0,0,0,0,0.08422852,-0.7325439,-0.2701416,0,0,0,0,0,0
1.593332,-0.8271842,0.7872236,0.983638,0.1528362,0,0,0,0,0,0,0,0,0,0,0,1,0,0,0,0,0,0.0645752,-0.6982422,-0.2895508,0,0,0,0,0,0
1.596665,-0.8593862,0.7554604,1,0.1927661,0,0,0,0,0,0,0,0,0,0,0,1,0,0,0,0,0,-0.005615234,-0.626709,-0.3430176,0,0,0,0,0,0
1.599999,-0.8830822,0.7232483,1,0.1927661,0,0,0,0,0,0,0,0,0,0,0,1,0,0,0,0,0,-0.009277344,-0.5812988,-0.3431396,0,0,0,0,0,0
1.603332,-0.9233196,0.6755022,1,0.1927661,0,0,0,0,0,0,0,0,0,0,0,1,0,0,0,0,0,0.04455566,-0.6031494,-0.3126221,0,0,0,0,0,0
1.606665,-0.9463074,0.6268787,1,0.1927661,0,0,0,0,0,0,0,0,0,0,0,1,0,0,0.04148438,-0.03748589,-0.1804321,0.107666,-0.7037354,-0.3007813,0,0,0,0,0,0
1.609999,-0.9784681,0.5790934,1,0.1927661,0,0,0,0,0,0,0,0,0,0,0,1,0,0,0.06712174,-0.02744841,-0.156848,0.1325684,-0.7650146,-0.3048096,0,0,0,0,0,0
1.613332,-1,0.5144897,1,0.1927661,0,0,0,0,0,0,0,0,0,0,0,1,0,0,0.1089501,-0.02348924,-0.1576778,0.1427002,-0.7852783,-0.3067627,0,0,0,0,0,0
1.616665,-1,0.4580168,1,0.2006854,0,0,0,0,0,0,0,0,0,0,0,1,0,0,0.1426847,-0.01874142,-0.1431844,0.1564941,-0.8205566,-0.2886963,0,0,0,0,0,0
1.619999,-1,0.4009901,1,0.2244794,0,0,0,0,0,0,0,0,0,0,0,1,0,0,0.1529268,-0.01407019,-0.1199426,0.1329346,-0.8703613,-0.2565918,0,0,0,0,0,0
1.623332,-1,0.3524597,1,0.2483314,0,0,0,0,0,0,0,0,0,0,0,0,0,0,0.1794178,-0.008246223,-0.1121986,0.1027832,-0.9613037,-0.2017822,0,0,0,0,0,0
1.626665,-1,0.3122526,1,0.2722459,0,0,0,0,0,0,0,0,0,0,0,0,0,0,0.1836808,0,-0.09596387,0.1051025,-1.011597,-0.1636963,0,0,0,0,0,0
1.629999,-1,0.2802319,1,0.2882255,0,0,0,0,0,0,0,0,0,0,0,0,0,0,0.1836659,0.005997253,-0.07696475,0.1381836,-1.072998,-0.1512451,0,0,0,0,0,0
1.633332,-1,0.2642672,1,0.2962267,0,0,0,0,0,0,0,0,0,0,0,0,0,0,0,0,0,0.1501465,-1.168091,-0.1607666,0,0,0,0,0,0
1.636665,-1,0.2483314,1,0.2962267,0,0,0,0,0,0,0,0,0,0,0,0,0,0,0.1360887,0.00830372,-0.01960601,0.1812744,-1.251099,-0.2401123,0,0,0,0,0,0
1.639999,-1,0.2324234,1,0.3042357,0,0,0,0,0,0,0,0,0,0,0,0,0,0,0.1391862,0.01199451,0.002748741,0.08703613,-1.225708,-0.1835938,0,0,0,0,0,0
1.643332,-1,0.2324234,1,0.3042357,0,0,0,0,0,0,0,0,0,0,0,0,0,0,0,0,0,0.08703613,-1.225708,-0.1835938,0,0,0,0,0,0
1.646665,-1,0.2244794,1,0.3042357,0,0,0,0,0,0,0,0,0,0,0,0,0,0,0,0,0,0.05505371,-1.132446,-0.1768799,0,0,0,0,0,0
1.649999,-1,0.2086106,0.7891013,0.2859063,0,0,0,0,0,0,0,0,0,0,0,0,0,0,0,0,0,0.005737305,-1.087524,-0.2510986,0,0,0,0,0,0
1.653332,-1,0.1927661,0,0,0,0,0,0,0,0,0,0,0,0,0,0,0,0,0,0,0,0.02233887,-1.136719,-0.2664795,0,0,0,0,0,0
1.656665,-1,0.1769445,-0.4425667,-0.1925672,0,0,0,0,0,0,0,0,0,0,0,0,0,0,0,0,0,0.1213379,-0.9470215,-0.1420898,0,0,0,0,0,0
1.659999,-1,0.1611441,-0.09726287,-0.0642302,0,0,0,0,0,0,0,0,0,0,0,0,0,0,0,0,0,0.0579834,-1.012329,-0.255127,0,0,0,0,0,0
1.663332,-1,0.1374799,0.1159836,0.06094052,0,0,0,0,0,0,0,0,0,0,0,0,0,0,0,0,0,-0.03918457,-0.8554688,-0.4127197,0,0,0,0,0,0
1.666665,-1,0.1059862,0,0,0,0,0,0,0,0,0,0,0,0,0,0,0,0,0,0,0,0.1883545,-1.015015,-0.1503906,0,0,0,0,0,0
1.669999,-1,0.08240198,0,0,0,0,0,0,0,0,0,0,0,0,0,0,0,0,0,0,0,0.1668701,-1.01062,-0.111084,0,0,0,0,0,0
1.673332,-1,0.05099206,0,0,0,0,0,0,0,0,0,0,0,0,0,0,0,0,0,0,0,0.05322266,-1.165161,-0.09448242,0,0,0,0,0,0
1.676665,-1,0.02745281,0,0,0,0,0,0,0,0,0,0,0,0,0,0,0,0,0,0,0,0.002197266,-1.239014,-0.04785156,0,0,0,0,0,0
1.679999,-1,0.01176485,0,0,0,0,0,0,0,0,0,0,0,0,0,0,0,0,0,0,0,-0.008911133,-1.313477,-0.00769043,0,0,0,0,0,0
1.683332,-1,-0.003921574,0,0,0,0,0,0,0,0,0,0,0,0,0,0,0,0,0,0,0,-0.0411377,-1.316162,-0.03308105,0,0,0,0,0,0
1.686665,-1,-0.01176485,0,0,0,0,0,0,0,0,0,0,0,0,0,0,0,0,-0.03073842,0.0507309,0.1289514,0.02905273,-1.368408,-0.1241455,0,0,0,0,0,0
1.689999,-1,-0.01176485,0,0,0,0,0,0,0,0,1,0,0,0,0,0,0,0,-0.07173492,0.03644411,0.117636,0.03369141,-1.317871,-0.1098633,0,0,0,0,0,0
1.693332,-1,-0.01176485,0,0,0,0,0,0,0,0,1,0,0,0,0,1,0,0,-0.1226938,0.03498398,0.1072009,0.00769043,-1.146851,-0.05993652,0,0,0,0,0,0
1.696665,-1,-0.01176485,0,0,0,0,0,0,0,0,1,0,0,0,0,1,0,0,-0.1596899,0.03248777,0.08446819,0.02624512,-1.144531,-0.08227539,0,0,0,0,0,0
1.699998,-1,-0.01176485,0,0,0,0,0,0,0,0,1,0,0,0,0,1,0,0,-0.1901629,0.02923661,0.05897299,0.06347656,-1.077271,-0.1269531,0,0,0,0,0,0
1.703332,-1,-0.01176485,0,0,0,0,0,0,0,0,1,0,0,0,0,1,0,0,-0.2084045,0.0189913,0.03373455,0.104126,-1.084351,-0.2432861,0,0,0,0,0,0
1.706665,-1,-0.01176485,0,0,0,0,0,0,0,0,1,0,0,0,0,1,0,0,0,0,0,0.104126,-1.084351,-0.2432861,0,0,0,0,0,0
1.709998,-1,-0.01176485,0,0,0,0,0,0,0,0,1,0,0,0,0,1,0,0,0,0,0,0.1779785,-1.018066,-0.380249,0,0,0,0,0,0
1.713332,-1,0,0,0,0,0,0,0,0,0,1,0,0,0,0,1,0,0,0,0,0,0.2104492,-1.000732,-0.4875488,0,0,0,0,0,0
1.716665,-1,0.02745281,0,0,0,0,0,0,0,0,1,0,0,0,0,1,0,0,0,0,0,0.1984863,-0.9841309,-0.5776367,0,0,0,0,0,0
1.719998,-1,0.035298,0,0,0,0,0,0,0,0,1,0,0,0,0,1,0,0,0,0,0,0.1607666,-0.9570313,-0.6340332,0,0,0,0,0,0
1.723332,-0.9817148,0.04302336,0,0,0,0,0,0,0,0,1,0,0,0,0,1,0,0,0,0,0,0.1254883,-0.9240723,-0.6429443,0,0,0,0,0,0
1.726665,-0.935593,0.04270342,0,0,0,0,0,0,0,0,1,0,0,0,0,1,0,0,0,0,0,0.1295166,-0.9130859,-0.5952148,0,0,0,0,0,0
1.729998,-0.8801823,0.03459232,0,0,0,0,0,0,0,0,1,0,0,0,0,1,0,0,0,0,0,0.1411133,-0.9165039,-0.5611572,0,0,0,0,0,0
1.733332,-0.815549,0.02655276,0,0,0,0,0,0,0,0,1,0,0,0,0,1,0,0,0,0,0,0.1499023,-0.9143066,-0.5429688,0,0,0,0,0,0
1.736665,-0.7508847,-0.01120724,0,0,0,0,0,0,0,0,1,0,0,0,0,1,0,0,0,0,0,0.1514893,-0.8974609,-0.4967041,0,0,0,0,0,0
1.739998,-0.6774814,-0.0476068,0,0,0,0,0,0,0,0,1,0,0,0,0,1,0,0,0,0,0,0.1517334,-0.8902588,-0.434082,0,0,0,0,0,0
1.743332,-0.586465,-0.08174966,0,0,0,0,0,0,0,0,1,0,0,0,0,1,0,0,0.2191496,-0.007246681,0.04023157,0.1359863,-0.9094238,-0.368042,0,0,0,0,0,0
1.746665,-0.4883352,-0.1195226,0,0,0,0,0,0,0,0,1,0,0,0,0,1,0,0,0.242389,0,0.03373455,0.1243896,-0.9654541,-0.3065186,0,0,0,0,0,0
1.749998,-0.3839567,-0.1451937,0,0,0,0,0,0,0,0,1,0,0,0,0,1,0,0,0.2304486,0.008765811,0.03044966,0.1411133,-1.035522,-0.2279053,0,0,0,0,0,0
1.753332,-0.3839567,-0.1451937,0,0,0,0,0,0,0,0,1,0,0,0,0,1,0,0,0,0,0,0.1411133,-1.035522,-0.2279053,0,0,0,0,0,0
1.756665,-0.2743341,-0.1504413,0,0,0,0,0,0,0,0,1,0,0,0,0,1,0,0,0,0,0,0.1849365,-1.070313,-0.1779785,0,0,0,0,0,0
1.759998,-0.1651694,-0.1397588,0,0,0,0,0,0,0,0,1,0,0,0,0,1,0,0,0,0,0,0.2062988,-1.104004,-0.1646729,0,0,0,0,0,0
1.763332,-0.07462046,-0.1149558,0,0,0,0,0,0,0,0,0,0,0,0,0,1,0,0,0,0,0,0.2067871,-1.132446,-0.1646729,0,0,0,0,0,0
1.766665,-0.02073687,-0.09092321,0,0,0,0,0,0,0,0,0,0,0,0,0,1,0,0,0,0,0,0.1789551,-1.042603,-0.1578369,0,0,0,0,0,0
1.769998,0.01078504,-0.08782104,0,0,0,0,0,0,0,0,0,0,0,0,0,1,0,0,0,0,0,0.2026367,-1.164795,-0.1230469,0,0,0,0,0,0
1.773332,0.03003737,-0.08695029,0,0,0,0,0,0,0,0,0,0,0,0,0,0,0,0,0,0,0,0.1546631,-1.16394,-0.1625977,0,0,0,0,0,0
1.776665,0.05637255,-0.1000158,0,0,0,0,0,0,0,0,0,0,0,0,0,0,0,0,0,0,0,0.06677246,-1.152588,-0.1900635,0,0,0,0,0,0
1.779998,0.1021952,-0.1195901,0,0,0,0,0,0,0,0,0,0,0,0,0,0,0,0,0,0,0,0.01818848,-1.156006,-0.1900635,0,0,0,0,0,0
1.783332,0.1577192,-0.1376913,0,0,0,0,0,0,0,0,0,0,0,0,0,0,0,0,0,0,0,0.03259277,-1.212646,-0.2230225,0,0,0,0,0,0
1.786665,0.2277072,-0.154616,0,0,0,0,0,0,0,0,0,0,0,0,0,0,0,0,0,0,0,0.03918457,-1.179321,-0.1643066,0,0,0,0,0,0
1.789998,0.3293373,-0.1787831,0,0,0,0,0,0,0,0,0,0,0,0,0,0,0,0,0,0,0,0.02783203,-0.9891357,-0.08312988,0,0,0,0,0,0
1.793332,0.4463023,-0.2214477,0,0,0,0,0,0,0,0,0,0,0,0,0,0,0,0,0,0,0,0.0402832,-0.9692383,-0.1027832,0,0,0,0,0,0
1.796665,0.5820701,-0.2639199,0,0,0,0,0,0,0,0,0,0,0,0,0,0,0,0,0,0,0,0.05737305,-0.9312744,-0.1529541,0,0,0,0,0,0
1.799998,0.7199735,-0.3204071,0,0,0,0,0,0,0,0,0,0,0,0,0,0,0,0,0,0,0,0.0267334,-0.9562988,-0.2098389,0,0,0,0,0,0
1.803332,0.8299589,-0.3590055,0,0,0,0,0,0,0,0,0,0,0,0,0,0,0,0,0,0,0,0.01062012,-1.136841,-0.2624512,0,0,0,0,0,0
1.806665,0.9305907,-0.3887278,0,0,0,0,0,0,0,0,1,0,0,0,0,0,0,0,0,0,0,0.01269531,-0.9443359,-0.2183838,0,0,0,0,0,0
1.809998,0.9943026,-0.4000978,0,0,0,0,0,0,0,0,1,0,0,0,0,0,0,0,0,0,0,0.06030273,-0.998291,-0.1984863,0,0,0,0,0,0
1.813332,1,-0.3924417,0,0,0,0,0,0,0,0,1,0,0,0,0,0,0,0,-0.154929,0.03348466,0.05047688,0.1500244,-0.9083252,-0.1838379,0,0,0,0,0,0
1.816665,1,-0.3766855,0,0,0,0,0,0,0,0,1,0,0,0,0,0,0,0,-0.165924,0.03223523,0.04273043,0.2612305,-0.9448242,-0.1513672,0,0,0,0,0,0
1.819998,1,-0.336352,0,0,0,0,0,0,0,0,1,0,0,0,0,0,0,0,-0.1580153,0.0288349,0.03760071,0.2050781,-0.9558105,-0.1723633,0,0,0,0,0,0
1.823332,1,-0.2962267,0,0,0,0,0,0,0,0,1,0,0,0,0,0,0,0,-0.1734206,0.02473867,0.04647871,0.138916,-0.9954834,-0.2938232,0,0,0,0,0,0
1.826665,1,-0.2165419,0,0,0,0,0,0,0,0,1,0,0,0,0,0,0,0,0,0,0,0.1053467,-0.9320068,-0.3459473,0,0,0,0,0,0
1.829998,1,-0.1927661,0,0,0,0,0,0,0,0,1,0,0,0,0,0,0,0,0,0,0,0.08093262,-0.8846436,-0.3538818,0,0,0,0,0,0
1.833332,1,-0.1769445,0,0,0,0,0,0,0,0,1,0,0,0,0,0,0,0,0,0,0,0.08300781,-0.855835,-0.3564453,0,0,0,0,0,0
1.836665,1,-0.1611441,0,0,0,0,0,0,0,0,1,0,0,0,0,1,0,0,0,0,0,0.1201172,-0.8620605,-0.298584,0,0,0,0,0,0
1.839998,1,-0.1453634,0,0,0,0,0,0,0,0,1,0,0,0,0,1,0,0,0,0,0,0.1815186,-0.8226318,-0.2546387,0,0,0,0,0,0
1.843332,1,-0.1296006,0,0,0,0,0,0,0,0,1,0,0,0,0,1,0,0,0,0,0,0.2310791,-0.7944336,-0.2709961,0,0,0,0,0,0
1.846665,1,-0.113854,0,0,0,0,0,0,0,0,1,0,0,0,0,1,0,0,0,0,0,0.2606201,-0.8117676,-0.3322754,0,0,0,0,0,0
1.849998,1,-0.09812176,0,0,0,0,0,0,0,0,1,0,0,0,0,1,0,0,0,0,0,0.274292,-0.8438721,-0.3370361,0,0,0,0,0,0
1.853332,1,-0.08240198,0,0,0,0,0,0,0,0,1,0,0,0,0,1,0,0,-0.02606675,0.03829275,0.08835015,0.2611084,-0.8565674,-0.3122559,0,0,0,0,0,0
1.856665,1,-0.05099206,0,0,0,0,0,0,0,0,1,0,0,0,0,1,0,0,-0.02173827,0.03997843,0.1031943,0.2353516,-0.9012451,-0.3070068,0,0,0,0,0,0
1.859998,1,-0.01960851,0,0,0,0,0,0,0,0,1,0,0,0,0,1,0,0,-0.01499313,0.03898215,0.1126984,0.2038574,-0.9255371,-0.3345947,0,0,0,0,0,0
1.863332,1,0.01176485,0,0,0,0,0,0,0,0,1,0,0,0,0,1,0,0,-0.01038057,0.03737003,0.1153396,0.1131592,-1.004761,-0.2825928,0,0,0,0,0,0
1.866665,1,0.04314433,0,0,0,0,0,0,0,0,1,0,0,0,0,1,0,0,-0.01424348,0.0484778,0.1366874,0.04223633,-0.9978027,-0.2320557,0,0,0,0,0,0
1.869998,1,0.04314433,0,0,0,0,0,0,0,0,1,0,0,0,0,1,0,0,0,0,0,0.04223633,-0.9978027,-0.2320557,0,0,0,0,0,0
1.873332,1,0.07454614,0,0,0,0,0,0,0,0,1,0,0,0,0,1,0,0,0,0,0,0.0001220703,-0.9887695,-0.1635742,0,0,0,0,0,0
1.876665,1,0.1059862,0,0,0,0,0,0,0,0,1,0,0,0,0,1,0,0,0,0,0,-0.04089355,-1.006104,-0.09008789,0,0,0,0,0,0
1.879998,1,0.1374799,0,0,0,0,0,0,0,0,1,0,0,0,0,1,0,0,0,0,0,-0.05639648,-0.956543,-0.03381348,0,0,0,0,0,0
1.883332,1,0.1690417,0,0,0,0,0,0,0,0,1,0,0,0,0,1,0,0,0,0,0,-0.08203125,-0.8671875,-0.02868652,0,0,0,0,0,0
1.886665,1,0.1927661,0,0,0,0,0,0,0,0,0,0,0,0,0,1,0,0,0,0,0,0.003295898,-0.6600342,-0.08898926,0,0,0,0,0,0
1.889998,1,0.2244794,0,0,0,0,0,0,0,0,0,0,0,0,0,1,0,0,0,0,0,0.07287598,-0.7524414,-0.1669922,0,0,0,0,0,0
1.893332,1,0.2403741,0,0,0,0,0,0,0,0,0,0,0,0,0,1,0,0,0,0,0,0.1427002,-0.7329102,-0.2786865,0,0,0,0,0,0
1.896665,1,0.2642672,0,0,0,0,0,0,0,0,0,0,0,0,0,0,0,0,0,0,0,0.1650391,-0.7626953,-0.3978271,0,0,0,0,0,0
1.899998,1,0.2722459,0,0,0,0,0,0,0,0,0,0,0,0,0,0,0,0,0,0,0,0.09106445,-0.8608398,-0.5135498,0,0,0,0,0,0
1.903332,1,0.2802319,0,0,0,0,0,0,0,0,0,0,0,0,0,0,0,0,-0.04474783,0.002998566,-0.07588677,0.0168457,-0.9885254,-0.5661621,0,0,0,0,0,0
1.906665,1,0.2882255,0,0,0,0,0,0,0,0,0,0,0,0,0,0,0,0,-0.03523386,-0.02723753,-0.07771441,-0.01391602,-1.128662,-0.5446777,0,0,0,0,0,0
1.909998,1,0.2882255,0,0,0,0,0,0,0,0,0,0,0,0,0,0,0,0,-0.03523673,-0.05273015,-0.06672488,0.0177002,-1.253784,-0.4145508,0,0,0,0,0,0
1.913332,1,0.2882255,0,0,0,0,0,0,0,0,0,0,0,0,0,0,0,0,-0.04636244,-0.06481514,-0.05489682,0.04589844,-1.290405,-0.2905273,0,0,0,0,0,0
1.916665,1,0.2882255,0,0,0,0,0,0,0,0,0,0,0,0,0,0,0,0,0,0,0,0.04589844,-1.290405,-0.2905273,0,0,0,0,0,0
1.919998,1,0.2882255,0,0,0,0,0,0,0,0,0,0,0,0,0,0,0,0,0,0,0,0.009155273,-1.303711,-0.2327881,0,0,0,0,0,0
1.923332,1,0.2882255,0,0,0,0,0,0,0,0,0,0,0,0,0,0,0,0,0,0,0,-0.02929688,-1.31604,-0.2093506,0,0,0,0,0,0
1.926665,1,0.2882255,0,0,0,0,0,0,0,0,0,0,0,0,0,0,0,0,0,0,0,-0.03991699,-1.299072,-0.2019043,0,0,0,0,0,0
1.929998,1,0.2882255,0,0,0,0,0,0,0,0,0,0,0,0,0,0,0,0,0,0,0,-0.05554199,-1.264038,-0.2662354,0,0,0,0,0,0
1.933332,1,0.2882255,0,0,0,0,0,0,0,0,0,0,0,0,0,1,0,0,0,0,0,-0.07739258,-1.218384,-0.3513184,0,0,0,0,0,0
1.936665,1,0.2882255,0,0,0,0,0,0,0,0,0,0,0,0,0,1,0,0,0,0,0,-0.0723877,-1.13562,-0.4052734,0,0,0,0,0,0
1.939998,1,0.2882255,0,0,0,0,0,0,0,0,0,0,0,0,0,1,0,0,0,0,0,-0.02832031,-1.003784,-0.4135742,0,0,0,0,0,0
1.943332,1,0.2882255,0,0,0,0,0,0,0,0,0,0,0,0,0,1,0,0,0,0,0,0.02819824,-0.8502197,-0.3616943,0,0,0,0,0,0
1.946665,1,0.2882255,0,0,0,0,0,0,0,0,0,0,0,0,0,1,0,0,0,0,0,0.1136475,-0.6564941,-0.4147949,0,0,0,0,0,0
1.949998,1,0.2882255,-0.09726287,0.0642302,0,0,0,0,0,0,0,0,0,0,0,1,0,0,0,0,0,0.1306152,-0.7150879,-0.3201904,0,0,0,0,0,0
1.953332,1,0.2882255,-0.2221195,0.1932729,0,0,0,0,0,0,0,0,0,0,0,1,0,0,-0.3251011,-0.1781684,-0.1564284,0.008911133,-0.8013916,0.01928711,0,0,0,0,0,0
1.956665,1,0.2882255,-0.3539984,0.3746197,0,0,0,0,0,0,0,0,0,0,0,1,0,0,-0.2602062,-0.1183385,-0.127335,-0.1464844,-0.7928467,0.01184082,0,0,0,0,0,0
1.959998,1,0.2882255,-0.4586422,0.5854214,0,0,0,0,0,0,0,0,0,0,0,1,0,0,-0.251135,-0.0762151,-0.1126984,-0.1352539,-0.9450684,-0.06628418,0,0,0,0,0,0
1.963332,1,0.2882255,-0.4586422,0.5854214,0,0,0,0,0,0,0,0,0,0,0,1,0,0,0,0,0,-0.1352539,-0.9450684,-0.06628418,0,0,0,0,0,0
1.966665,1,0.2882255,-0.5511723,0.8091677,0,0,0,0,0,0,0,0,0,0,0,1,0,0,0,0,0,-0.01733398,-0.862793,-0.1763916,0,0,0,0,0,0
1.969998,1,0.2882255,-0.6018312,0.9445959,0,0,0,0,0,0,0,0,0,0,0,1,0,0,0,0,0,0.2886963,-0.5391846,-0.6202393,0,0,0,0,0,0
1.973332,1,0.2882255,-0.6101702,0.9451655,0,0,0,0,0,0,0,0,0,0,0,1,0,0,0,0,0,0.581543,-0.4599609,-0.973999,0,0,0,0,0,0
1.976665,1,0.2882255,-0.6101702,0.9451655,0,0,0,0,0,0,0,0,0,0,0,1,0,0,0,0,0,0.6125488,-0.5782471,-0.8846436,0,0,0,0,0,0
1.979998,1,0.2882255,-0.6185194,0.9457361,0,0,0,0,0,0,0,0,0,0,0,1,0,0,0,0,0,0.4742432,-0.6724854,-0.6446533,0,0,0,0,0,0
1.983332,1,0.2802319,-0.6185194,0.9457361,0,0,0,0,0,0,0,0,0,0,0,1,0,0,0,0,0,0.3182373,-0.7064209,-0.4411621,0,0,0,0,0,0
1.986665,1,0.2642672,-0.6185194,0.9457361,0,0,0,0,0,0,0,0,0,0,0,1,0,0,0,0,0,0.223999,-0.7427979,-0.3702393,0,0,0,0,0,0
1.989998,1,0.2403741,-0.6185194,0.9457361,0,0,0,0,0,0,0,0,0,0,0,1,0,0,0,0,0,0.166748,-0.762085,-0.362915,0,0,0,0,0,0
1.993332,1,0.2165419,-0.6424721,0.9297888,0,0,0,0,0,0,0,0,0,0,0,1,0,0,0,0,0,0.1429443,-0.7999268,-0.4173584,0,0,0,0,0,0
1.996665,1,0.1927661,-0.6664929,0.9139333,0,0,0,0,0,0,0,0,0,0,0,1,0,0,0.1501589,-0.009687673,0.005766472,0.1170654,-0.8237305,-0.4914551,0,0,0,0,0,0
1.999998,0.9297782,0.190624,-0.7135427,0.865021,0,0,0,0,0,0,0,0,0,0,0,1,0,0,0,0,0,0.08239746,-0.8778076,-0.5263672,0,0,0,0,0,0
2.003332,0.7832924,0.185417,-0.7859832,0.8099219,0,0,0,0,0,0,0,0,0,0,0,1,0,0,0,0,0,0.06542969,-0.9487305,-0.5140381,0,0,0,0,0,0
2.006665,0.6011409,0.1763826,-0.8662497,0.7305239,0,0,0,0,0,0,0,0,0,0,0,1,0,0,0.06527647,-0.01568481,-0.02790973,0.1474609,-1.010132,-0.506958,0,0,0,0,0,0
2.009998,0.3682174,0.1568926,-0.9286237,0.625725,0,0,0,0,0,0,0,0,0,0,0,1,0,0,0.05822333,-0.009745537,-0.02648787,0.1827393,-1.012817,-0.4539795,0,0,0,0,0,0
2.013332,0.1438502,0.1155518,-0.9821059,0.4970172,0,0,0,0,0,0,0,0,0,0,0,1,0,0,0.06922394,0.001749341,-0.009746331,0.2751465,-1.018311,-0.3817139,0,0,0,0,0,0
2.016665,0.1438502,0.1155518,-0.9821059,0.4970172,0,0,0,0,0,0,0,0,0,0,0,1,0,0,0,0,0,0.2751465,-1.018311,-0.3817139,0,0,0,0,0,0
2.019998,0,0,-1,0.336352,0,0,0,0,0,0,0,0,0,0,0,1,0,0,0,0,0,0.3482666,-1.026367,-0.3613281,0,0,0,0,0,0
2.023332,0,0,-1,0.1611441,0,0,0,0,0,0,0,0,0,0,0,1,0,0,0,0,0,0.4354248,-1.036133,-0.3000488,0,0,0,0,0,0
2.026665,0,0,-1,-0.035298,0,0,0,0,0,0,0,0,0,0,0,1,0,0,0,0,0,0.4423828,-1.014526,-0.2250977,0,0,0,0,0,0
2.029998,-0.07054136,-0.01197872,-1,-0.2244794,0,0,0,0,0,0,0,0,0,0,0,1,0,0,0,0,0,0.2727051,-1.053589,-0.2006836,0,0,0,0,0,0
2.033332,-0.2109087,-0.04828029,-1,-0.4009901,0,0,0,0,0,0,0,0,0,0,0,0,0,0,0,0,0,0.1491699,-1.09375,-0.1401367,0,0,0,0,0,0
2.036665,-0.3775668,-0.09201207,-0.9506614,-0.5608505,0,0,0,0,0,0,0,0,0,0,0,0,0,0,0,0,0,0.0682373,-1.112549,-0.1085205,0,0,0,0,0,0
2.039998,-0.5269321,-0.1500535,-0.8637865,-0.696602,0,0,0,0,0,0,0,0,0,0,0,0,0,0,0,0,0,-0.005493164,-1.237427,-0.05200195,0,0,0,0,0,0
2.043332,-0.657149,-0.2019173,-0.7602726,-0.8080384,0,0,0,0,0,0,0,0,0,0,0,0,0,0,0,0,0,-0.01159668,-1.212402,-0.1798096,0,0,0,0,0,0
2.046665,-0.7785393,-0.2620449,-0.664692,-0.8875827,0,0,0,0,0,0,0,0,0,0,0,0,0,0,0,0,0,-0.03686523,-1.079102,-0.06469727,0,0,0,0,0,0
2.049998,-0.8829952,-0.3461964,-0.5531238,-0.9590133,0,0,0,0,0,0,0,0,0,0,0,0,0,0,0,0,0,-0.06286621,-1.069702,-0.1407471,0,0,0,0,0,0
2.053332,-0.9591129,-0.4144315,-0.4330592,-1,0,0,0,0,0,0,0,0,0,0,0,0,0,0,0.1364486,0.127452,0.1331998,-0.06091309,-1.05835,-0.2362061,0,0,0,0,0,0
2.056665,-0.9705868,-0.4555815,-0.2962267,-1,0,0,0,0,0,0,0,0,0,0,0,0,0,0,0,0,0,0.04321289,-1.12146,-0.2657471,0,0,0,0,0,0
2.059998,-0.9546975,-0.4872523,-0.1611441,-1,0,0,0,0,0,0,0,0,0,0,0,0,0,0,0.1284412,0.1032027,0.1499313,0.02502441,-1.053955,-0.3863525,0,0,0,0,0,0
2.063332,-0.9479036,-0.5195622,-0.05884144,-1,0,0,0,0,0,0,0,0,0,0,0,0,0,0,0.1231936,0.08146269,0.1539295,0.002807617,-0.9951172,-0.4301758,0,0,0,0,0,0
2.066665,-0.9479036,-0.5195622,-0.05884144,-1,0,0,0,0,0,0,0,0,0,0,0,0,0,0,0,0,0,0.002807617,-0.9951172,-0.4301758,0,0,0,0,0,0
2.069998,-0.9323087,-0.5514507,0.05099206,-1,0,0,0,0,0,0,0,0,0,0,0,0,0,0,0,0,0,-0.02209473,-0.9942627,-0.423584,0,0,0,0,0,0
2.073332,-0.9168625,-0.583458,0.1296006,-1,0,0,0,0,0,0,0,0,0,0,0,0,0,0,0,0,0,-0.05090332,-1.004761,-0.3863525,0,0,0,0,0,0
2.076665,-0.8927374,-0.6149969,0.2006854,-1,0,0,0,0,0,0,0,0,0,0,0,0,0,0,0,0,0,-0.06835938,-1.01416,-0.3532715,0,0,0,0,0,0
2.079998,-0.8688172,-0.646654,0.2722459,-1,0,0,0,0,0,0,0,0,0,0,0,0,0,0,0,0,0,-0.04589844,-1.045288,-0.3325195,0,0,0,0,0,0
2.083332,-0.845718,-0.6868977,0.3444016,-1,0,0,0,0,0,0,0,0,0,0,0,0,0,0,0,0,0,-0.004516602,-1.06958,-0.3181152,0,0,0,0,0,0
2.086665,-0.8135034,-0.718264,0.4091095,-1,0,0,0,0,0,0,0,0,0,0,0,0,0,0,0,0,0,0.01159668,-1.062256,-0.3355713,0,0,0,0,0,0
2.089998,-0.7821831,-0.7583603,0.4825947,-1,0,0,0,0,0,0,0,0,0,0,0,0,0,0,0,0,0,0.01403809,-1.018311,-0.3389893,0,0,0,0,0,0
2.093332,-0.7504452,-0.7901513,0.5469962,-0.9941757,0,0,0,0,0,0,0,0,0,0,0,0,0,0,0,0,0,0.01745605,-0.9710693,-0.369751,0,0,0,0,0,0
2.096665,-0.7104076,-0.8215328,0.6112997,-0.9628969,0,0,0,0,0,0,0,0,0,0,0,0,0,0,0,0,0,0.04174805,-0.9344482,-0.3482666,0,0,0,0,0,0
2.099998,-0.6706443,-0.8531865,0.6833416,-0.9151183,0,0,0,0,0,0,0,0,0,0,0,0,0,0,0,0,0,0.07470703,-0.939209,-0.2716064,0,0,0,0,0,0
2.103332,-0.6233535,-0.893341,0.7390295,-0.8668616,0,0,0,0,0,0,0,0,0,0,0,0,0,0,0,0,0,0.02478027,-0.9099121,-0.213623,0,0,0,0,0,0
2.106665,-0.5757334,-0.925144,0.810544,-0.7945727,0,0,0,0,0,0,0,0,0,0,0,0,0,0,0,0,0,-0.01867676,-0.9411621,-0.2154541,0,0,0,0,0,0
2.109998,-0.5124105,-0.9652384,0.8737444,-0.7141563,0,0,0,0,0,0,0,0,0,0,0,0,0,0,-0.0639707,-0.02398901,0.1214444,-0.05627441,-0.9317627,-0.2016602,0,0,0,0,0,0
2.113332,-0.448894,-0.9971008,0.9274606,-0.6090192,0,0,0,0,0,0,0,0,0,0,0,0,0,0,-0.09070845,-0.0207405,0.1007039,-0.0645752,-0.9603271,-0.166748,0,0,0,0,0,0
2.116665,-0.3766855,-1,0.9815939,-0.4888099,0,0,0,0,0,0,0,0,0,0,0,0,0,0,-0.1102647,-0.0133794,0.07312533,-0.07165527,-0.9223633,-0.1699219,0,0,0,0,0,0
2.119998,-0.3766855,-1,0.9815939,-0.4888099,0,0,0,0,0,0,0,0,0,0,0,0,0,0,0,0,0,-0.07165527,-0.9223633,-0.1699219,0,0,0,0,0,0
2.123332,-0.3122526,-1,1,-0.3444016,0,0,0,0,0,0,0,0,0,0,0,0,0,0,0,0,0,-0.07897949,-0.8311768,-0.2021484,0,0,0,0,0,0
2.126665,-0.2483314,-1,1,-0.1927661,0,0,0,0,0,0,0,0,0,0,0,1,0,0,0,0,0,-0.03027344,-0.7563477,-0.2215576,0,0,0,0,0,0
2.129998,-0.1848525,-1,1,-0.06669273,0,0,0,0,0,0,0,0,0,0,0,1,0,0,0,0,0,0.0300293,-0.715332,-0.2713623,0,0,0,0,0,0
2.133332,-0.1296006,-1,1,0.05099206,0,0,0,0,0,0,0,0,0,0,0,1,0,0,0,0,0,0.09350586,-0.697998,-0.300415,0,0,0,0,0,0
2.136665,-0.05884144,-1,1,0.1611441,0,0,0,0,0,0,0,0,0,0,0,1,0,0,0,0,0,0.1763916,-0.6333008,-0.3796387,0,0,0,0,0,0
2.139998,0.003921574,-1,1,0.2165419,0,0,0,0,0,0,0,0,0,0,0,1,0,0,0,0,0,0.2172852,-0.5809326,-0.4343262,0,0,0,0,0,0
2.143332,0.05884144,-1,1,0.2403741,0,0,0,0,0,0,0,0,0,0,0,1,0,0,0,0,0,0.1672363,-0.5383301,-0.4261475,0,0,0,0,0,0
2.146665,0.1059862,-1,1,0.2562958,0,0,0,0,0,0,0,0,0,0,0,1,0,0,0,0,0,0.1190186,-0.5457764,-0.4429932,0,0,0,0,0,0
2.149998,0.1532514,-1,1,0.2722459,0,0,0,0,0,0,0,0,0,0,0,1,0,0,0,0,0,0.1433105,-0.5906982,-0.449707,0,0,0,0,0,0
2.153332,0.2006854,-1,1,0.2882255,0,0,0,0,0,0,0,0,0,0,0,1,0,0,0,0,0,0.2159424,-0.6557617,-0.4547119,0,0,0,0,0,0
2.156665,0.2483314,-1,1,0.3202776,0,0,0,0,0,0,0,0,0,0,0,1,0,0,0.1109673,0.01974417,-0.1909437,0.2915039,-0.7095947,-0.4597168,0,0,0,0,0,0
2.159998,0.2882255,-1,1,0.3605264,0,0,0,0,0,0,0,0,0,0,0,1,0,0,0.127093,0.01822205,-0.1725328,0.3374023,-0.7735596,-0.4818115,0,0,0,0,0,0
2.163332,0.3283107,-1,1,0.4091095,0,0,0,0,0,0,0,0,0,0,0,1,0,0,0.1648976,0.01873836,-0.1736422,0.3449707,-0.8575439,-0.4989014,0,0,0,0,0,0
2.166665,0.3283107,-1,1,0.4091095,0,0,0,0,0,0,0,0,0,0,0,1,0,0,0,0,0,0.3449707,-0.8575439,-0.4989014,0,0,0,0,0,0
2.169998,0.3686016,-1,1,0.4416777,0,0,0,0,0,0,0,0,0,0,0,1,0,0,0,0,0,0.3255615,-0.9362793,-0.4998779,0,0,0,0,0,0
2.173331,0.4091095,-1,1,0.4908059,0,0,0,0,0,0,0,0,0,0,0,1,0,0,0,0,0,0.260498,-0.9450684,-0.4594727,0,0,0,0,0,0
2.176665,0.4416777,-1,1,0.523744,0,0,0,0,0,0,0,0,0,0,0,1,0,0,0,0,0,0.213623,-1.05603,-0.3752441,0,0,0,0,0,0
2.179998,0.4825947,-1,0.9952292,0.5635635,0,0,0,0,0,0,0,0,0,0,0,1,0,0,0,0,0,0.2191162,-1.136353,-0.3112793,0,0,0,0,0,0
2.183331,0.523744,-1,0.9628969,0.6112997,0,0,0,0,0,0,0,0,0,0,0,1,0,0,0,0,0,0.145874,-1.104614,-0.27771,0,0,0,0,0,0
2.186665,0.5723898,-1,0.8963585,0.6652973,0,0,0,0,0,0,0,0,0,0,0,1,0,0,0,0,0,0.05236816,-1.002808,-0.2509766,0,0,0,0,0,0
2.189998,0.6124081,-0.9806534,0.7146466,0.6599742,0,0,0,0,0,0,0,0,0,0,0,1,0,0,0,0,0,0.02087402,-0.9567871,-0.2247314,0,0,0,0,0,0
2.193331,0.6682492,-0.9403506,0.4799126,0.6386239,0,0,0,0,0,0,0,0,0,0,0,1,0,0,0,0,0,0.04748535,-0.9382324,-0.1936035,0,0,0,0,0,0
2.196665,0.7159706,-0.8999631,0.2375395,0.5353503,0,0,0,0,0,0,0,0,0,0,0,0,0,0,0,0,0,0.09448242,-0.9354248,-0.1789551,0,0,0,0,0,0
2.199998,0.7633857,-0.8513149,0.03164313,0.2905414,0,0,0,0,0,0,0,0,0,0,0,0,0,0,0,0,0,0.1311035,-0.9123535,-0.1717529,0,0,0,0,0,0
2.203331,0.8179268,-0.778028,0,0,0,0,0,0,0,0,0,0,0,0,0,0,0,0,0,0,0,0.1539307,-0.9899902,-0.05712891,0,0,0,0,0,0
2.206665,0.8725189,-0.6972183,0,0,0,0,0,0,0,0,0,0,0,0,0,0,0,0,0,0,0,0.1027832,-1.129761,-0.05761719,0,0,0,0,0,0
2.209998,0.9274606,-0.6090192,0,0,0,0,0,0,0,0,0,0,0,0,0,0,0,0,0.08927286,0.1038057,0.08419792,0.01171875,-0.9777832,-0.09191895,0,0,0,0,0,0
2.213331,0.9731412,-0.4965006,0,0,0,0,0,0,0,0,0,0,0,0,0,0,0,0,0.07296658,0.113448,0.09445674,-0.05627441,-0.9248047,-0.0904541,0,0,0,0,0,0
2.216665,1,-0.3847782,0,0,0,0,0,0,0,0,0,0,0,0,0,0,0,0,0.05472494,0.1109492,0.09920457,-0.08996582,-0.9470215,-0.1572266,0,0,0,0,0,0
2.219998,1,-0.3847782,0,0,0,0,0,0,0,0,0,0,0,0,0,0,0,0,0,0,0,-0.08996582,-0.9470215,-0.1572266,0,0,0,0,0,0
2.223331,1,-0.2483314,0,0,0,0,0,0,0,0,0,0,0,0,0,0,0,0,0,0,0,-0.05688477,-0.949707,-0.2399902,0,0,0,0,0,0
2.226665,1,-0.1374799,0,0,0,0,0,0,0,0,0,0,0,0,0,0,0,0,0,0,0,-0.04785156,-0.9578857,-0.3134766,0,0,0,0,0,0
2.229998,1,-0.01960851,0,0,0,0,0,0,0,0,0,0,0,0,0,0,0,0,0,0,0,-0.06091309,-0.9974365,-0.3240967,0,0,0,0,0,0
2.233331,1,0.08240198,0,0,0,0,0,0,0,0,0,0,0,0,0,0,0,0,0,0,0,-0.07397461,-1.026978,-0.2963867,0,0,0,0,0,0
2.236665,1,0.1769445,0,0,0,0,0,0,0,0,0,0,0,0,0,0,0,0,0,0,0,-0.1101074,-1.037964,-0.2888184,0,0,0,0,0,0
2.239998,1,0.2562958,0,0,0,0,0,0,0,0,0,0,0,0,0,0,0,0,0,0,0,-0.1323242,-0.9902344,-0.2814941,0,0,0,0,0,0
2.243331,1,0.336352,0,0,0,0,0,0,0,0,0,0,0,0,0,0,0,0,0,0,0,-0.1352539,-0.9858398,-0.1846924,0,0,0,0,0,0
2.246665,1,0.4172379,0,0,0,0,0,0,0,0,0,0,0,0,0,0,0,0,0,0,0,-0.1695557,-1.006104,-0.1342773,0,0,0,0,0,0
2.249998,1,0.4985325,0,0,0,0,0,0,0,0,0,0,0,0,0,0,0,0,0,0,0,-0.2032471,-0.977417,-0.1669922,0,0,0,0,0,0
2.253331,0.9784681,0.5790934,0,0,0,0,0,0,0,0,0,0,0,0,0,0,0,0,0.009745537,0.01099496,0.1149474,-0.1362305,-0.9835205,-0.1799316,0,0,0,0,0,0
2.256665,0.9309547,0.6592598,0,0,0,0,0,0,0,0,0,0,0,0,0,0,0,0,0.00449794,-0.006497024,0.100454,-0.04748535,-0.9304199,-0.1843262,0,0,0,0,0,0
2.259998,0.8755721,0.7396386,0,0,0,0,0,0,0,0,0,0,0,0,0,1,0,0,0.009919208,-0.02375996,0.07727754,-0.02246094,-0.8918457,-0.1962891,0,0,0,0,0,0
2.263331,0.8755721,0.7396386,0,0,0,0,0,0,0,0,0,0,0,0,0,1,0,0,0,0,0,-0.02246094,-0.8918457,-0.1962891,0,0,0,0,0,0
2.266665,0.8203964,0.8123925,0,0,0,0,0,0,0,0,0,0,0,0,0,1,0,0,0,0,0,-0.05627441,-0.8648682,-0.2154541,0,0,0,0,0,0
2.269998,0.7566752,0.8767824,0,0,0,0,0,0,0,0,0,0,0,0,0,1,0,0,0,0,0,-0.09619141,-0.9724121,-0.1571045,0,0,0,0,0,0
2.273331,0.7008187,0.9250807,0,0,0,0,0,0,0,0,0,0,0,0,0,1,0,0,0,0,0,-0.08850098,-0.980835,-0.1289063,0,0,0,0,0,0
2.276665,0.6447625,0.9651414,0,0,0,0,0,0,0,0,0,0,0,0,0,1,0,0,0,0,0,-0.07226563,-0.8952637,-0.07788086,0,0,0,0,0,0
2.279998,0.5801693,0.9962907,0,0,0,0,0,0,0,0,0,0,0,0,0,1,0,0,0,0,0,-0.07141113,-0.8249512,0.05102539,0,0,0,0,0,0
2.283331,0.5154955,1,0,0,0,0,0,0,0,0,0,0,0,0,0,1,0,0,0,0,0,0.0009765625,-0.8400879,-0.09606934,0,0,0,0,0,0
2.286665,0.4498426,1,0,0,0,0,0,0,0,0,0,0,0,0,0,1,0,0,0,0,0,0.1813965,-0.9053955,-0.1202393,0,0,0,0,0,0
2.289998,0.4009901,1,0,0,0,0,0,0,0,0,0,0,0,0,0,1,0,0,0,0,0,0.2767334,-0.8725586,-0.2076416,0,0,0,0,0,0
2.293331,0.3444016,1,0,0,0,0,0,0,0,0,0,0,0,0,0,1,0,0,0,0,0,0.2526855,-0.875,-0.2962646,0,0,0,0,0,0
2.296665,0.2882255,1,-0.004210616,0.001479406,0,0,0,0,0,0,0,0,0,0,0,1,0,0,0,0,0,0.2006836,-0.8807373,-0.3543701,0,0,0,0,0,0
2.299998,0.2403741,1,-0.02946557,0.008908195,0,0,0,0,0,0,0,0,0,0,0,1,0,0,0.2713978,-0.04698231,-0.1134573,0.114502,-0.8837891,-0.3078613,0,0,0,0,0,0
2.303331,0.1848525,1,-0.0731312,0.01793784,0,0,0,0,0,0,0,0,0,0,0,1,0,0,0.2539555,-0.04221058,-0.1210959,0.03527832,-0.8924561,-0.2779541,0,0,0,0,0,0
2.306665,0.1296006,1,-0.1088355,0.02319446,0,0,0,0,0,0,0,0,0,0,0,1,0,0,0.2726251,-0.0432302,-0.1486819,-0.009521484,-0.9208984,-0.2969971,0,0,0,0,0,0
2.309998,0.1296006,1,-0.1088355,0.02319446,0,0,0,0,0,0,0,0,0,0,0,1,0,0,0,0,0,-0.009521484,-0.9208984,-0.2969971,0,0,0,0,0,0
2.313331,0.07454614,1,-0.1524967,0.01933056,0,0,0,0,0,0,0,0,0,0,0,1,0,0,0,0,0,-0.01538086,-0.9760742,-0.3155518,0,0,0,0,0,0
2.316665,0.01960851,1,-0.1789112,0.006970565,0,0,0,0,0,0,0,0,0,0,0,1,0,0,0,0,0,0.01672363,-0.9584961,-0.3284912,0,0,0,0,0,0
2.319998,-0.035298,1,-0.2342409,-0.00789576,0,0,0,0,0,0,0,0,0,0,0,1,0,0,0,0,0,0.03479004,-0.9389648,-0.3292236,0,0,0,0,0,0
2.323331,-0.09812176,1,-0.2721735,-0.03086503,0,0,0,0,0,0,0,0,0,0,0,1,0,0,0,0,0,0.04931641,-0.9399414,-0.3344727,0,0,0,0,0,0
2.326665,-0.1611441,1,-0.3107786,-0.05623612,0,0,0,0,0,0,0,0,0,0,0,1,0,0,0,0,0,0.06311035,-0.9215088,-0.3509521,0,0,0,0,0,0
2.329998,-0.2324234,1,-0.3692079,-0.09782433,0,0,0,0,0,0,0,0,0,0,0,1,0,0,0,0,0,0.02783203,-0.8983154,-0.2401123,0,0,0,0,0,0
2.333331,-0.2962267,1,-0.4008897,-0.1401484,0,0,0,0,0,0,0,0,0,0,0,1,0,0,0,0,0,0.02307129,-0.8902588,-0.1264648,0,0,0,0,0,0
2.336665,-0.3605264,1,-0.4249301,-0.1907167,0,0,0,0,0,0,0,0,0,0,0,1,0,0,0,0,0,0.02685547,-0.8878174,-0.1101074,0,0,0,0,0,0
2.339998,-0.4172379,1,-0.4415714,-0.2498815,0,0,0,0,0,0,0,0,0,0,0,1,0,0,0,0,0,0.1075439,-0.8649902,-0.151123,0,0,0,0,0,0
2.343331,-0.4825947,1,-0.4765072,-0.3212011,0,0,0,0,0,0,0,0,0,0,0,1,0,0,0,0,0,0.1530762,-0.8271484,-0.1749268,0,0,0,0,0,0
2.346665,-0.540269,1,-0.5024258,-0.3939886,0,0,0,0,0,0,0,0,0,0,0,1,0,0,0.3355963,-0.06896842,-0.1059515,0.1224365,-0.8729248,-0.1448975,0,0,0,0,0,0
2.349998,-0.7008187,0.9250807,-0.5532761,-0.6372214,0,0,0,0,0,0,0,0,0,0,0,0,0,0,0.3086087,-0.05572448,-0.06821876,0.03991699,-1.111694,-0.0267334,0,0,0,0,0,0
2.353331,-0.7487553,0.8848926,-0.5601121,-0.7146257,0,0,0,0,0,0,0,0,0,0,0,0,0,0,0.2518846,-0.04048146,-0.04273043,0.07263184,-1.281738,-0.1535645,0,0,0,0,0,0
2.356665,-0.7487553,0.8848926,-0.5601121,-0.7146257,0,0,0,0,0,0,0,0,0,0,0,0,0,0,0,0,0,0.07263184,-1.281738,-0.1535645,0,0,0,0,0,0
2.359998,-0.7970289,0.8450909,-0.5740268,-0.7848938,0,0,0,0,0,0,0,0,0,0,0,0,0,0,0,0,0,-0.08312988,-1.081543,0.09179688,0,0,0,0,0,0
2.363331,-0.836441,0.7964199,-0.5703015,-0.8456193,0,0,0,0,0,0,0,0,0,0,0,0,0,0,0,0,0,-0.04064941,-1.126343,0.06188965,0,0,0,0,0,0
2.366665,-0.8686867,0.7646044,-0.5727757,-0.8808895,0,0,0,0,0,0,0,0,0,0,0,0,0,0,0,0,0,-0.04052734,-1.108765,0.04309082,0,0,0,0,0,0
2.369998,-0.9005606,0.7244509,-0.5497247,-0.9056615,0,0,0,0,0,0,0,0,0,0,0,0,0,0,0,0,0,-0.04382324,-1.117188,0.05578613,0,0,0,0,0,0
2.373331,-0.9250807,0.7008187,-0.5255576,-0.9128106,0,0,0,0,0,0,0,0,0,0,0,0,0,0,0,0,0,-0.02734375,-1.111084,0.05871582,0,0,0,0,0,0
2.376665,-0.9491705,0.6688248,-0.4932755,-0.9194655,0,0,0,0,0,0,0,0,0,0,0,0,0,0,0,0,0,0.01245117,-1.074341,0.01477051,0,0,0,0,0,0
2.379998,-0.9557259,0.6358177,-0.4524612,-0.9167257,0,0,0,0,0,0,0,0,0,0,0,0,0,0,0,0,0,0.03491211,-1.033081,-0.00769043,0,0,0,0,0,0
2.383331,-0.9717721,0.6118565,-0.4038519,-0.9135678,0,0,0,0,0,0,0,0,0,0,0,0,0,0,0,0,0,0.04626465,-1.009399,-0.001831055,0,0,0,0,0,0
2.386665,-0.9873765,0.579634,-0.3551577,-0.9015543,0,0,0,0,0,0,0,0,0,0,0,0,0,0,0,0,0,0.08752441,-1.034302,0.01318359,0,0,0,0,0,0
2.389998,-0.9947014,0.5552751,-0.281892,-0.861122,0,0,0,0,0,0,0,0,0,0,0,0,0,0,0,0,0,0.1367188,-1.098999,0.03979492,0,0,0,0,0,0
2.393331,-1,0.5227324,-0.2181426,-0.8304729,0,0,0,0,0,0,0,0,0,0,0,0,0,0,0,0,0,0.0925293,-1.154419,0.1184082,0,0,0,0,0,0
2.396665,-1,0.4990265,-0.1320559,-0.7810164,0,0,0,0,0,0,0,0,0,0,0,0,0,0,0,0,0,0.02368164,-1.137695,0.1268311,0,0,0,0,0,0
2.399998,-1,0.4580168,-0.04091135,-0.7326851,0,0,0,0,0,0,0,0,0,0,0,0,0,0,0,0,0,0.05712891,-1.16333,0.114624,0,0,0,0,0,0
2.403331,-1,0.4253754,0.06210821,-0.6685767,0,0,0,0,0,0,0,0,0,0,0,0,0,0,0,0,0,0.1647949,-1.173828,0.1002197,0,0,0,0,0,0
2.406665,-1,0.3847782,0.154382,-0.5995765,0,0,0,0,0,0,0,0,0,0,0,0,0,0,0.02814038,0.01937535,0.005074495,0.1517334,-1.261108,0.1392822,0,0,0,0,0,0
2.409998,-1,0.3524597,0.2508157,-0.5192944,0,0,0,0,0,0,0,0,0,0,0,1,0,0,-0.005247597,0.01249428,-0.002498855,0.1083984,-1.241455,0.1571045,0,0,0,0,0,0
2.413331,-1,0.3283107,0.3561327,-0.4478104,0,0,0,0,0,0,0,0,0,0,0,1,0,0,-0.04298032,0.009995421,-0.01749199,0.05603027,-1.253418,0.1905518,0,0,0,0,0,0
2.416665,-1,0.3283107,0.3561327,-0.4478104,0,0,0,0,0,0,0,0,0,0,0,1,0,0,0,0,0,0.05603027,-1.253418,0.1905518,0,0,0,0,0,0
2.419998,-1,0.3042357,0.4572511,-0.365092,0,0,0,0,0,0,0,0,0,0,0,1,0,0,0,0,0,0.05688477,-1.230103,0.1895752,0,0,0,0,0,0
2.423331,-1,0.2962267,0.5675083,-0.2927909,0,0,0,0,0,0,0,0,0,0,0,1,0,0,0,0,0,0.112915,-1.163086,0.114624,0,0,0,0,0,0
2.426665,-1,0.2802319,0.6848707,-0.2110142,0,0,0,0,0,0,0,0,0,0,0,1,0,0,0,0,0,0.1813965,-1.078979,0.01696777,0,0,0,0,0,0
2.429998,-1,0.2722459,0.79938,-0.1325986,0,0,0,0,0,0,0,0,0,0,0,1,0,0,0,0,0,0.2380371,-0.9833984,-0.0144043,0,0,0,0,0,0
2.433331,-1,0.2642672,0.9080862,-0.05796295,0,0,0,0,0,0,0,0,0,0,0,1,0,0,0,0,0,0.2679443,-0.8468018,-0.04492188,0,0,0,0,0,0
2.436665,-1,0.2562958,1,0,0,0,0,0,0,0,0,0,0,0,0,1,0,0,0,0,0,0.2773438,-0.8300781,-0.1864014,0,0,0,0,0,0
2.439998,-1,0.2562958,1,0.05099206,0,0,0,0,0,0,0,0,0,0,0,1,0,0,0,0,0,0.2363281,-0.7362061,-0.2774658,0,0,0,0,0,0
2.443331,-0.9868547,0.2476966,1,0.05099206,0,0,0,0,0,0,0,0,0,0,0,1,0,0,0,0,0,0.1849365,-0.6787109,-0.3553467,0,0,0,0,0,0
2.446665,-0.977073,0.2315153,1,0.05099206,0,0,0,0,0,0,0,0,0,0,0,1,0,0,0,0,0,0.1633301,-0.7039795,-0.3634033,0,0,0,0,0,0
2.449998,-0.9764718,0.2156866,1,0.05099206,0,0,0,0,0,0,0,0,0,0,0,1,0,0,0.091708,-0.0762151,-0.1824165,0.07067871,-0.7501221,-0.3842773,0,0,0,0,0,0
2.453331,-0.9759073,0.1998846,1,0.05099206,0,0,0,0,0,0,0,0,0,0,0,1,0,0,0.126692,-0.06846865,-0.1906627,-0.04602051,-0.7921143,-0.4205322,0,0,0,0,0,0
2.456665,-0.9759073,0.1998846,1,0.05099206,0,0,0,0,0,0,0,0,0,0,0,1,0,0,0,0,0,-0.04602051,-0.7921143,-0.4205322,0,0,0,0,0,0
2.459998,-0.9657061,0.1681189,1,0.05099206,0,0,0,0,0,0,0,0,0,0,0,1,0,0,0,0,0,-0.1065674,-0.8330078,-0.4870605,0,0,0,0,0,0
2.463331,-0.964295,0.1132168,1,0.04314433,0,0,0,0,0,0,0,0,0,0,0,1,0,0,0,0,0,-0.107666,-0.8233643,-0.5921631,0,0,0,0,0,0
2.466665,-0.963335,0.05070185,1,0.02745281,0,0,0,0,0,0,0,0,0,0,0,1,0,0,0,0,0,-0.04699707,-0.8181152,-0.6651611,0,0,0,0,0,0
2.469998,-0.963335,-0.05070185,1,-0.01176485,0,0,0,0,0,0,0,0,0,0,0,1,0,0,0,0,0,0.01330566,-0.7962646,-0.6295166,0,0,0,0,0,0
2.473331,-0.9562842,-0.1600312,1,-0.04314433,0,0,0,0,0,0,0,0,0,0,0,1,0,0,0,0,0,0.03039551,-0.8101807,-0.4625244,0,0,0,0,0,0
2.476665,-0.951719,-0.2780743,1,-0.08240198,0,0,0,0,0,0,0,0,0,0,0,1,0,0,0,0,0,0.02990723,-0.8304443,-0.2805176,0,0,0,0,0,0
2.479998,-0.940101,-0.3972812,1,-0.1296006,0,0,0,0,0,0,0,0,0,0,0,1,0,0,0,0,0,0.0279541,-0.8879395,-0.1668701,0,0,0,0,0,0
2.483331,-0.9400869,-0.5354926,1,-0.1611441,0,0,0,0,0,0,0,0,0,0,0,1,0,0,0,0,0,0.0838623,-0.9361572,-0.08569336,0,0,0,0,0,0
2.486665,-0.893341,-0.6233535,1,-0.2086106,0,0,0,0,0,0,0,0,0,0,0,1,0,0,0,0,0,0.1789551,-1.062988,0.02978516,0,0,0,0,0,0
2.489998,-0.853813,-0.6790792,1,-0.2483314,0,0,0,0,0,0,0,0,0,0,0,1,0,0,0,0,0,0.2290039,-1.067993,0.06030273,0,0,0,0,0,0
2.493331,-0.8141426,-0.7267712,1,-0.2802319,0,0,0,0,0,0,0,0,0,0,0,1,0,0,0,0,0,0.2385254,-1.07666,0.08056641,0,0,0,0,0,0
2.496665,-0.790792,-0.7590014,1,-0.3122526,0,0,0,0,0,0,0,0,0,0,0,1,0,0,0.2959127,0.01474565,-0.1207144,0.2271729,-1.081299,0.08605957,0,0,0,0,0,0
2.499998,-0.7669296,-0.7828245,1,-0.336352,0,0,0,0,0,0,0,0,0,0,0,0,0,0,0.236656,0.01337822,-0.1072564,0.2548828,-1.13208,0.1298828,0,0,0,0,0,0
2.503331,-0.7669296,-0.7828245,1,-0.336352,0,0,0,0,0,0,0,0,0,0,0,0,0,0,0,0,0,0.2548828,-1.13208,0.1298828,0,0,0,0,0,0
2.506665,-0.7510855,-0.7987735,0.9921125,-0.3596902,0,0,0,0,0,0,0,0,0,0,0,0,0,0,0,0,0,0.2347412,-1.113403,0.09240723,0,0,0,0,0,0
2.509998,-0.7352889,-0.8147796,0.9653503,-0.3664391,0,0,0,0,0,0,0,0,0,0,0,0,0,0,0,0,0,0.1940918,-1.123535,0.04528809,0,0,0,0,0,0
2.513331,-0.7195361,-0.8308456,0.9210774,-0.3801894,0,0,0,0,0,0,0,0,0,0,0,0,0,0,0,0,0,0.1954346,-1.190796,-0.0489502,0,0,0,0,0,0
2.516665,-0.7031947,-0.8382716,0.8850136,-0.3781776,0,0,0,0,0,0,0,0,0,0,0,0,0,0,0,0,0,0.1558838,-1.179565,0.01989746,0,0,0,0,0,0
2.519998,-0.6875248,-0.8544383,0.8580171,-0.3765957,0,0,0,0,0,0,0,0,0,0,0,0,0,0,0,0,0,0.1405029,-1.085205,0.03686523,0,0,0,0,0,0
2.523331,-0.6718884,-0.870672,0.8490287,-0.3760538,0,0,0,0,0,0,0,0,0,0,0,0,0,0,0,0,0,0.15625,-1.098022,-0.006591797,0,0,0,0,0,0
2.526664,-0.648488,-0.8951521,0.8490287,-0.3760538,0,0,0,0,0,0,0,0,0,0,0,0,0,0,0,0,0,0.1467285,-1.087402,0.0008544922,0,0,0,0,0,0
2.529998,-0.6084355,-0.9186182,0.8490287,-0.3760538,0,0,0,0,0,0,0,0,0,0,0,0,0,0,0,0,0,0.1645508,-1.155884,0.0748291,0,0,0,0,0,0
2.533331,-0.5685782,-0.9423288,0.8850136,-0.3781776,0,0,0,0,0,0,0,0,0,0,0,0,0,0,0,0,0,0.1965332,-1.318237,0.2102051,0,0,0,0,0,0
2.536664,-0.5211732,-0.9747131,0.9481722,-0.3816295,0,0,0,0,0,0,0,0,0,0,0,0,0,0,-0.03348466,0.1264421,0.00674691,0.1495361,-1.363647,0.2489014,0,0,0,0,0,0
2.539998,-0.4811167,-0.9900665,1,-0.3847782,0,0,0,0,0,0,0,0,0,0,0,0,0,0,-0.07151057,0.134486,0.02583608,0.08166504,-1.343628,0.2371826,0,0,0,0,0,0
2.543331,-0.4416777,-1,1,-0.3847782,0,0,0,0,0,0,0,0,0,0,0,0,0,0,-0.1236933,0.1589272,0.03648329,0.0559082,-1.311523,0.2027588,0,0,0,0,0,0
2.546664,-0.4416777,-1,1,-0.3847782,0,0,0,0,0,0,0,0,0,0,0,0,0,0,0,0,0,0.0559082,-1.311523,0.2027588,0,0,0,0,0,0
2.549998,-0.4091095,-1,1,-0.3766855,0,0,0,0,0,0,0,0,0,0,0,0,0,0,0,0,0,0.1575928,-1.300537,0.1533203,0,0,0,0,0,0
2.553331,-0.3847782,-1,1,-0.3524597,0,0,0,0,0,0,0,0,0,0,0,0,0,0,0,0,0,0.2766113,-1.301147,0.06225586,0,0,0,0,0,0
2.556664,-0.3605264,-1,1,-0.3122526,0,0,0,0,0,0,0,0,0,0,0,0,0,0,0,0,0,0.2783203,-1.269287,-0.004516602,0,0,0,0,0,0
2.559998,-0.3444016,-1,1,-0.2802319,0,0,0,0,0,0,0,0,0,0,0,1,0,0,0,0,0,0.2147217,-1.243774,0.01025391,0,0,0,0,0,0
2.563331,-0.3202776,-1,1,-0.2324234,0,0,0,0,0,0,0,0,0,0,0,1,0,0,0,0,0,0.1844482,-1.227051,0.04675293,0,0,0,0,0,0
2.566664,-0.3122526,-1,1,-0.2006854,0,0,0,0,0,0,0,0,0,0,0,1,0,0,0,0,0,0.168457,-1.217407,0.01489258,0,0,0,0,0,0
2.569998,-0.2962267,-1,1,-0.1611441,0,0,0,0,0,0,0,0,0,0,0,1,0,0,0,0,0,0.1500244,-1.147339,-0.02404785,0,0,0,0,0,0
2.573331,-0.2962267,-1,1,-0.1296006,0,0,0,0,0,0,0,0,0,0,0,1,0,0,0,0,0,0.1553955,-1.069946,-0.03540039,0,0,0,0,0,0
2.576664,-0.2882255,-1,1,-0.09812176,0,0,0,0,0,0,0,0,0,0,0,1,0,0,0,0,0,0.1274414,-0.9631348,0.08007813,0,0,0,0,0,0
2.579998,-0.2882255,-1,1,-0.05884144,0,0,0,0,0,0,0,0,0,0,0,1,0,0,-0.1204546,0.114207,-0.003248777,0.08947754,-0.9190674,-0.140625,0,0,0,0,0,0
2.583331,-0.2882255,-1,1,-0.035298,0,0,0,0,0,0,0,0,0,0,0,1,0,0,-0.07946361,0.09820502,-0.01999084,0.1804199,-0.9348145,-0.2364502,0,0,0,0,0,0
2.586664,-0.2882255,-1,1,-0.003921574,0,0,0,0,0,0,0,0,0,0,0,1,0,0,-0.04472952,0.07971349,-0.03323478,0.1678467,-0.8968506,-0.1846924,0,0,0,0,0,0
2.589998,-0.2882255,-1,1,0.01960851,0,0,0,0,0,0,0,0,0,0,0,1,0,0,-0.02098996,0.06412317,-0.0454398,0.1540527,-0.8875732,-0.1994629,0,0,0,0,0,0
2.593331,-0.2882255,-1,1,0.01960851,0,0,0,0,0,0,0,0,0,0,0,1,0,0,0,0,0,0.1540527,-0.8875732,-0.1994629,0,0,0,0,0,0
2.596664,-0.2882255,-1,1,0.04314433,0,0,0,0,0,0,0,0,0,0,0,1,0,0,0,0,0,0.2553711,-0.8760986,-0.3464355,0,0,0,0,0,0
2.599998,-0.2882255,-1,1,0.05099206,0,0,0,0,0,0,0,0,0,0,0,1,0,0,0,0,0,0.2772217,-0.8621826,-0.4273682,0,0,0,0,0,0
2.603331,-0.2962267,-1,1,0.06669273,0,0,0,0,0,0,0,0,0,0,0,1,0,0,0,0,0,0.2460938,-0.8552246,-0.4378662,0,0,0,0,0,0
2.606664,-0.3042357,-1,1,0.06669273,0,0,0,0,0,0,0,0,0,0,0,1,0,0,0,0,0,0.2189941,-0.8798828,-0.4484863,0,0,0,0,0,0
2.609998,-0.3202776,-1,1,0.07454614,0,0,0,0,0,0,0,0,0,0,0,1,0,0,0,0,0,0.1801758,-0.9381104,-0.4440918,0,0,0,0,0,0
2.613331,-0.336352,-1,1,0.07454614,0,0,0,0,0,0,0,0,0,0,0,1,0,0,0,0,0,0.1517334,-0.9498291,-0.3927002,0,0,0,0,0,0
2.616664,-0.3524597,-1,1,0.08240198,0,0,0,0,0,0,0,0,0,0,0,1,0,0,0,0,0,0.1573486,-0.9375,-0.2861328,0,0,0,0,0,0
2.619998,-0.3686016,-1,1,0.08240198,0,0,0,0,0,0,0,0,0,0,0,1,0,0,0,0,0,0.2098389,-0.9591064,-0.2130127,0,0,0,0,0,0
2.623331,-0.3847782,-1,1,0.09026043,0,0,0,0,0,0,0,0,0,0,0,1,0,0,0.08857302,-0.03967333,-0.03344554,0.2515869,-1.004272,-0.1643066,0,0,0,0,0,0
2.626664,-0.3928797,-1,1,0.113854,0,0,0,0,0,0,0,0,0,0,0,1,0,0,0.09920457,-0.03573363,-0.009495651,0.2313232,-1.050537,-0.09912109,0,0,0,0,0,0
2.629998,-0.4009901,-1,1,0.1374799,0,0,0,0,0,0,0,0,0,0,0,1,0,0,0.1002204,-0.02399292,0.01649513,0.2069092,-1.077515,-0.01635742,0,0,0,0,0,0
2.633331,-0.4009901,-1,1,0.1374799,0,0,0,0,0,0,0,0,0,0,0,1,0,0,0,0,0,0.2069092,-1.077515,-0.01635742,0,0,0,0,0,0
2.636664,-0.4091095,-1,1,0.1532514,0,0,0,0,0,0,0,0,0,0,0,1,0,0,0,0,0,0.2287598,-1.120728,0.02929688,0,0,0,0,0,0
2.639998,-0.4172379,-1,1,0.1611441,0,0,0,0,0,0,0,0,0,0,0,1,0,0,0,0,0,0.2276611,-1.155518,0.02441406,0,0,0,0,0,0
2.643331,-0.4172379,-1,0.8277507,0.1563953,0,0,0,0,0,0,0,0,0,0,0,1,0,0,0,0,0,0.1398926,-1.16748,0.008300781,0,0,0,0,0,0
2.646664,-0.4253754,-1,0,0,0,0,0,0,0,0,0,0,0,0,0,1,0,0,0,0,0,0.1494141,-1.072998,-0.02453613,0,0,0,0,0,0
2.649998,-0.433522,-1,-0.497982,-0.1270713,0,0,0,0,0,0,0,0,0,0,0,1,0,0,0,0,0,0.276001,-1.095337,0.1140137,0,0,0,0,0,0
2.653331,-0.4416777,-1,-0.1303549,-0.06000465,0,0,0,0,0,0,0,0,0,0,0,1,0,0,0,0,0,0.1234131,-0.9089355,0.03796387,0,0,0,0,0,0
2.656664,-0.4580168,-1,0.1596847,0.05172886,0,0,0,0,0,0,0,0,0,0,0,0,0,0,0,0,0,0.006469727,-0.8234863,-0.1298828,0,0,0,0,0,0
2.659998,-0.4743927,-1,0,0,0,0,0,0,0,0,0,0,0,0,0,0,0,0,0,0,0,0.1856689,-0.9747314,0.04931641,0,0,0,0,0,0
2.663331,-0.4821076,-1,0,0,0,0,0,0,0,0,0,0,0,0,0,0,0,0,0,0,0,0.208252,-0.9743652,0.004516602,0,0,0,0,0,0
2.666664,-0.4980331,-1,0,0,0,0,0,0,0,0,0,0,0,0,0,0,0,0,0.1574279,0.007496567,0.09270754,-0.05432129,-0.9581299,-0.001342773,0,0,0,0,0,0
2.669998,-0.5139784,-0.9920977,0,0,0,0,0,0,0,0,0,0,0,0,0,0,0,0,0.1499924,0.002999847,0.1079945,0.1292725,-0.9720459,-0.1375732,0,0,0,0,0,0
2.673331,-0.5216986,-0.9836607,0,0,0,0,0,0,0,0,0,0,0,0,0,0,0,0,0.1356274,-0.0002306589,0.1017206,-0.002075195,-0.9282227,-0.03271484,0,0,0,0,0,0
2.676664,-0.5216986,-0.9836607,0,0,0,0,0,0,0,0,0,0,0,0,0,0,0,0,0,0,0,-0.002075195,-0.9282227,-0.03271484,0,0,0,0,0,0
2.679998,-0.5376719,-0.9757748,0,0,0,0,0,0,0,0,0,0,0,0,0,0,0,0,0,0,0,-0.01416016,-0.8806152,0.07849121,0,0,0,0,0,0
2.683331,-0.5531238,-0.9590133,0,0,0,0,0,0,0,0,0,0,0,0,0,0,0,0,0,0,0,0.015625,-0.9537354,0.09594727,0,0,0,0,0,0
2.686664,-0.5691394,-0.9512189,0,0,0,0,0,0,0,0,1,0,0,0,0,0,0,0,0,0,0,0.04528809,-1.068848,0.1314697,0,0,0,0,0,0
2.689998,-0.5846143,-0.9345874,0,0,0,0,0,0,0,0,1,0,0,0,0,0,0,0,0,0,0,0.07507324,-0.8828125,0.1628418,0,0,0,0,0,0
2.693331,-0.6090192,-0.9274606,0,0,0,0,0,0,0,0,1,0,0,0,0,0,0,0,0,0,0,0.142334,-0.9935303,0.09521484,0,0,0,0,0,0
2.696664,-0.62455,-0.9109678,0,0,0,0,0,0,0,0,1,0,0,0,0,0,0,0,0,0,0,0.2211914,-1.023804,0.005981445,0,0,0,0,0,0
2.699998,-0.6562817,-0.8869745,0,0,0,0,0,0,0,0,1,0,0,0,0,0,0,0,0,0,0,0.2479248,-1.057983,-0.09606934,0,0,0,0,0,0
2.703331,-0.6797026,-0.8625466,0,0,0,0,0,0,0,0,1,0,0,0,0,0,0,0,0,0,0,0.2180176,-0.9953613,-0.114502,0,0,0,0,0,0
2.706664,-0.7038234,-0.846974,0,0,0,0,0,0,0,0,1,0,0,0,0,1,0,0,0.02583608,-0.06758901,0.1040363,0.1661377,-0.9049072,-0.08349609,0,0,0,0,0,0
2.709998,-0.7346511,-0.8061307,0,0,0,0,0,0,0,0,1,0,0,0,0,1,0,0,0.03746757,-0.07543471,0.110904,0.1018066,-0.9544678,-0.02575684,0,0,0,0,0,0
2.713331,-0.7748705,-0.7748705,0,0,0,0,0,0,0,0,1,0,0,0,0,1,0,0,0.03348739,-0.06797441,0.111458,0.06591797,-1.047852,0.02978516,0,0,0,0,0,0
2.716664,-0.7748705,-0.7748705,0,0,0,0,0,0,0,0,1,0,0,0,0,1,0,0,0,0,0,0.06591797,-1.047852,0.02978516,0,0,0,0,0,0
2.719998,-0.8054897,-0.7261311,0,0,0,0,0,0,0,0,1,0,0,0,0,1,0,0,0,0,0,0.07568359,-1.03418,0.06604004,0,0,0,0,0,0
2.723331,-0.845718,-0.6868977,0,0,0,0,0,0,0,0,1,0,0,0,0,1,0,0,0,0,0,0.119751,-0.9866943,0.09313965,0,0,0,0,0,0
2.726664,-0.8688172,-0.646654,0,0,0,0,0,0,0,0,1,0,0,0,0,1,0,0,0,0,0,0.1602783,-1.003296,0.09130859,0,0,0,0,0,0
2.729998,-0.8927374,-0.6149969,0,0,0,0,0,0,0,0,1,0,0,0,0,1,0,0,0,0,0,0.1882324,-1.021118,0.07043457,0,0,0,0,0,0
2.733331,-0.9162793,-0.5751536,0,0,0,0,0,0,0,0,1,0,0,0,0,1,0,0,0,0,0,0.1855469,-1.037231,0.06323242,0,0,0,0,0,0
2.736664,-0.9317433,-0.5431865,0,0,0,0,0,0,0,0,1,0,0,0,0,1,0,0,0,0,0,0.1721191,-1.040771,0.05224609,0,0,0,0,0,0
2.739998,-0.9473591,-0.5113361,0,0,0,0,0,0,0,0,1,0,0,0,0,1,0,0,0,0,0,0.1466064,-1.038452,0.02075195,0,0,0,0,0,0
2.743331,-0.9636579,-0.4877774,0,0,0,0,0,0,0,0,1,0,0,0,0,1,0,0,0,0,0,0.1125488,-1.018188,-0.00390625,0,0,0,0,0,0
2.746664,-0.9710904,-0.4637452,0,0,0,0,0,0,0,0,1,0,0,0,0,1,0,0,0,0,0,0.1488037,-0.9559326,-0.03942871,0,0,0,0,0,0
2.749998,-0.9785979,-0.4397748,0,0,0,0,0,0,0,0,1,0,0,0,0,1,0,0,0.1399359,-0.02923661,0.1416851,0.1108398,-0.9661865,-0.0135498,0,0,0,0,0,0
2.753331,-0.9866543,-0.423984,0,0,0,0,0,0,0,0,1,0,0,0,0,1,0,0,0.159427,-0.02823707,0.141935,0.0447998,-1.02124,0.02185059,0,0,0,0,0,0
2.756664,-0.9947569,-0.408207,0,0,0,0,0,0,0,0,1,0,0,0,0,1,0,0,0.1547721,-0.02398852,0.1317062,0.04248047,-1.032715,0.009887695,0,0,0,0,0,0
2.759998,-0.9947569,-0.408207,0,0,0,0,0,0,0,0,1,0,0,0,0,1,0,0,0,0,0,0.04248047,-1.032715,0.009887695,0,0,0,0,0,0
2.763331,-1,-0.3843456,0,0,0,0,0,0,0,0,1,0,0,0,0,1,0,0,0,0,0,0.02368164,-1.057129,0.08959961,0,0,0,0,0,0
2.766664,-1,-0.3686016,0,0,0,0,0,0,0,0,1,0,0,0,0,1,0,0,0,0,0,0.01196289,-1.074463,0.1807861,0,0,0,0,0,0
2.769998,-1,-0.3444016,0,0,0,0,0,0,0,0,1,0,0,0,0,1,0,0,0,0,0,0.009521484,-1.085693,0.2331543,0,0,0,0,0,0
2.773331,-1,-0.3122526,0,0,0,0,0,0,0,0,1,0,0,0,0,1,0,0,0,0,0,0.01733398,-1.087158,0.2554932,0,0,0,0,0,0
2.776664,-1,-0.2802319,0,0,0,0,0,0,0,0,1,0,0,0,0,1,0,0,0,0,0,0.03869629,-1.073364,0.2728271,0,0,0,0,0,0
2.779998,-1,-0.2483314,0,0,0,0,0,0,0,0,1,0,0,0,0,0,0,0,0,0,0,0.04284668,-1.060791,0.2885742,0,0,0,0,0,0
2.783331,-1,-0.2165419,0,0,0,0,0,0,0,0,1,0,0,0,0,0,0,0,0,0,0,0.01855469,-1.091187,0.3017578,0,0,0,0,0,0
2.786664,-1,-0.1769445,0,0,0,0,0,0,0,0,0,0,0,0,0,0,0,0,0,0,0,-0.003417969,-1.085449,0.2801514,0,0,0,0,0,0
2.789998,-1,-0.1217254,0,0,0,0,0,0,0,0,0,0,0,0,0,0,0,0,0,0,0,0.09887695,-0.9326172,0.1938477,0,0,0,0,0,0
2.793331,-1,-0.07454614,0,0,0,0,0,0,0,0,0,0,0,0,0,0,0,0,-0.08094973,0.01024364,0.01149286,-0.01672363,-1.175293,0.2476807,0,0,0,0,0,0
2.796664,-1,-0.003921574,0,0,0,0,0,0,0,0,0,0,0,0,0,0,0,0,-0.1199532,0.005766981,-0.0004613585,0.01928711,-1.166626,0.1112061,0,0,0,0,0,0
2.799998,-1,0.05884144,0,0,0,0,0,0,0,0,0,0,0,0,0,0,0,0,-0.165924,-0.004997711,-0.01924119,0.04101563,-1.089478,0.08459473,0,0,0,0,0,0
2.803331,-1,0.05884144,0,0,0,0,0,0,0,0,0,0,0,0,0,0,0,0,0,0,0,0.04101563,-1.089478,0.08459473,0,0,0,0,0,0
2.806664,-1,0.113854,0,0,0,0,0,0,0,0,0,0,0,0,0,0,0,0,0,0,0,0.08520508,-0.9963379,0.05285645,0,0,0,0,0,0
2.809998,-1,0.1690417,0,0,0,0,0,0,0,0,0,0,0,0,0,0,0,0,0,0,0,0.06298828,-1.059814,0.04370117,0,0,0,0,0,0
2.813331,-1,0.2165419,0,0,0,0,0,0,0,0,0,0,0,0,0,0,0,0,0,0,0,0.0002441406,-1.167725,0.0625,0,0,0,0,0,0
2.816664,-1,0.2802319,0,0,0,0,0,0,0,0,0,0,0,0,0,0,0,0,0,0,0,-0.05407715,-1.214966,0.04516602,0,0,0,0,0,0
2.819998,-1,0.3283107,0,0,0,0,0,0,0,0,0,0,0,0,0,0,0,0,0,0,0,-0.08947754,-1.206787,0.01330566,0,0,0,0,0,0
2.823331,-1,0.3766855,0,0,0,0,0,0,0,0,0,0,0,0,0,0,0,0,0,0,0,-0.05969238,-1.092773,0.02001953,0,0,0,0,0,0
2.826664,-1,0.4253754,0,0,0,0,0,0,0,0,0,0,0,0,0,0,0,0,0,0,0,-0.02172852,-1.02478,0.04748535,0,0,0,0,0,0
2.829998,-1,0.4662001,0,0,0,0,0,0,0,0,1,0,0,0,0,0,0,0,0,0,0,-0.03088379,-1.117554,0.06604004,0,0,0,0,0,0
2.833331,-1,0.5154955,0,0,0,0,0,0,0,0,1,0,0,0,0,1,0,0,0,0,0,-0.00793457,-0.6580811,0.06762695,0,0,0,0,0,0
2.836664,-0.9952292,0.5635635,0,0,0,0,0,0,0,0,1,0,0,0,0,1,0,0,-0.3236018,-0.06646956,-0.1366874,0.04711914,-0.8114014,0.03137207,0,0,0,0,0,0
2.839998,-0.980105,0.6040648,0,0,0,0,0,0,0,0,1,0,0,0,0,1,0,0,-0.2791219,-0.05859253,-0.1314872,0.08056641,-0.9439697,0.05603027,0,0,0,0,0,0
2.843331,-0.9562932,0.6441975,0,0,0,0,0,0,0,0,1,0,0,0,0,1,0,0,-0.2826205,-0.05547459,-0.1326892,0.09338379,-1.060059,0.05395508,0,0,0,0,0,0
2.846664,-0.9327032,0.6845161,0,0,0,0,0,0,0,0,1,0,0,0,0,1,0,0,-0.2644004,-0.0464825,-0.1179556,0.07470703,-1.086792,-0.001953125,0,0,0,0,0,0
2.849998,-0.9327032,0.6845161,0,0,0,0,0,0,0,0,1,0,0,0,0,1,0,0,0,0,0,0.07470703,-1.086792,-0.001953125,0,0,0,0,0,0
2.853331,-0.9005606,0.7244509,0,0,0,0,0,0,0,0,1,0,0,0,0,1,0,0,0,0,0,0.1193848,-1.025879,-0.0567627,0,0,0,0,0,0
2.856664,-0.8680802,0.7560699,0,0,0,0,0,0,0,0,1,0,0,0,0,1,0,0,0,0,0,0.1849365,-0.9179688,0.06872559,0,0,0,0,0,0
2.859998,-0.8284124,0.8044004,0,0,0,0,0,0,0,0,1,0,0,0,0,1,0,0,0,0,0,0.2243652,-0.9229736,0.0390625,0,0,0,0,0,0
2.863331,-0.7804915,0.8525369,0,0,0,0,0,0,0,0,1,0,0,0,0,1,0,0,0,0,0,0.3344727,-1.026489,0.02929688,0,0,0,0,0,0
2.866664,-0.7238518,0.8918174,0,0,0,0,0,0,0,0,1,0,0,0,0,1,0,0,0,0,0,0.407959,-1.019409,-0.02978516,0,0,0,0,0,0
2.869998,-0.6676687,0.9315377,0,0,0,0,0,0,0,0,1,0,0,0,0,1,0,0,0,0,0,0.3774414,-1.027832,-0.09460449,0,0,0,0,0,0
2.873331,-0.6035143,0.9712184,0,0,0,0,0,0,0,0,1,0,0,0,0,1,0,0,0,0,0,0.2987061,-1.047852,-0.1342773,0,0,0,0,0,0
2.876664,-0.5392466,1,0,0,0,0,0,0,0,0,1,0,0,0,0,1,0,0,0,0,0,0.227417,-1.043701,-0.1594238,0,0,0,0,0,0
2.879997,-0.4662001,1,0,0,0,0,0,0,0,0,1,0,0,0,0,1,0,0,-0.003460189,0.007381736,-0.008304453,0.1772461,-1.028687,-0.1804199,0,0,0,0,0,0
2.883331,-0.2324234,1,0,0,0,0,0,0,0,0,1,0,0,0,0,1,0,0,0,0,0,0.09350586,-1.057617,-0.1051025,0,0,0,0,0,0
2.886664,-0.1453634,1,0,0,0,0,0,0,0,0,1,0,0,0,0,1,0,0,0,0,0,0.02539063,-1.039185,-0.01757813,0,0,0,0,0,0
2.889997,-0.06669273,1,0,0,0,0,0,0,0,0,1,0,0,0,0,1,0,0,0,0,0,-0.06030273,-1.034424,0.01074219,0,0,0,0,0,0
2.893331,0.01176485,1,0,0,0,0,0,0,0,0,0,0,0,0,0,1,0,0,0,0,0,-0.04370117,-0.9022217,0.0007324219,0,0,0,0,0,0
2.896664,0.09026043,1,0,0,0,0,0,0,0,0,0,0,0,0,0,1,0,0,0,0,0,0.05493164,-0.916748,0.03051758,0,0,0,0,0,0
2.899997,0.1611441,1,0,0,0,0,0,0,0,0,0,0,0,0,0,1,0,0,0,0,0,0.1500244,-0.8990479,0.02905273,0,0,0,0,0,0
2.903331,0.2483314,1,0,0,0,0,0,0,0,0,0,0,0,0,0,1,0,0,0,0,0,0.1447754,-0.9251709,0.08752441,0,0,0,0,0,0
2.906664,0.3202776,1,0,0,0,0,0,0,0,0,0,0,0,0,0,1,0,0,0,0,0,0.09545898,-0.9908447,0.0690918,0,0,0,0,0,0
2.909997,0.3928797,1,0,0,0,0,0,0,0,0,0,0,0,0,0,1,0,0,0.09946255,0.0382356,0.0762213,0.02832031,-1.115845,0.06188965,0,0,0,0,0,0
2.913331,0.4662001,1,0,0,0,0,0,0,0,0,0,0,0,0,0,0,0,0,0.07334953,0.03782806,0.08949565,0.01037598,-1.255737,0.04418945,0,0,0,0,0,0
2.916664,0.4662001,1,0,0,0,0,0,0,0,0,0,0,0,0,0,0,0,0,0,0,0,0.01037598,-1.255737,0.04418945,0,0,0,0,0,0
2.919997,0.523744,1,0,0,0,0,0,0,0,0,0,0,0,0,0,0,0,0,0,0,0,-0.03088379,-1.147949,0.02453613,0,0,0,0,0,0
2.923331,0.5890183,1,0,0,0,0,0,0,0,0,0,0,0,0,0,0,0,0,0,0,0,0.01989746,-1.214111,-0.1491699,0,0,0,0,0,0
2.926664,0.6453226,0.973996,0,0,0,0,0,0,0,0,0,0,0,0,0,0,0,0,0,0,0,-0.01013184,-1.01001,-0.06542969,0,0,0,0,0,0
2.929997,0.6935343,0.9420841,0,0,0,0,0,0,0,0,0,0,0,0,0,0,0,0,0,0,0,0.03271484,-1.004883,-0.0402832,0,0,0,0,0,0
2.933331,0.7262222,0.926836,0,0,0,0,0,0,0,0,0,0,0,0,0,0,0,0,0,0,0,-0.01049805,-0.9936523,-0.0880127,0,0,0,0,0,0
2.936664,0.7420328,0.9104943,0,0,0,0,0,0,0,0,0,0,0,0,0,0,0,0,0,0,0,-0.06201172,-1.005737,-0.1209717,0,0,0,0,0,0
2.939997,0.7578744,0.8942115,0,0,0,0,0,0,0,0,0,0,0,0,0,0,0,0,0,0,0,-0.07910156,-1.032104,-0.1140137,0,0,0,0,0,0
2.943331,0.7658077,0.8860916,0,0,0,0,0,0,0,0,0,0,0,0,0,0,0,0,0,0,0,-0.08703613,-1.069214,-0.1153564,0,0,0,0,0,0
2.946664,0.77375,0.8779858,0,0,0,0,0,0,0,0,0,0,0,0,0,0,0,0,0,0,0,-0.1008301,-1.118042,-0.1083984,0,0,0,0,0,0
2.949997,0.7982369,0.8624167,0,0,0,0,0,0,0,0,0,0,0,0,0,0,0,0,0,0,0,-0.1086426,-1.117676,-0.05334473,0,0,0,0,0,0
2.953331,0.8136096,0.8376572,0,0,0,0,0,0,0,0,0,0,0,0,0,0,0,0,0,0,0,-0.09875488,-1.078369,-0.002929688,0,0,0,0,0,0
2.956664,0.8290224,0.8130026,0,0,0,0,0,0,0,0,0,0,0,0,0,0,0,0,0,0,0,-0.07873535,-1.02417,0.001220703,0,0,0,0,0,0
2.959997,0.8450909,0.7970289,0,0,0,0,0,0,0,0,0,0,0,0,0,0,0,0,0,0,0,-0.07836914,-0.9798584,-0.02539063,0,0,0,0,0,0
2.963331,0.8531445,0.7890585,0,0,0,0,0,0,0,0,0,0,0,0,0,0,0,0,0,0,0,-0.06066895,-0.9215088,-0.03405762,0,0,0,0,0,0
2.966664,0.8612111,0.7810984,0,0,0,0,0,0,0,0,0,0,0,0,0,0,0,0,-0.2228979,-0.1329391,-0.06522013,0.008911133,-0.588501,0.01538086,0,0,0,0,0,0
2.969997,0.8767824,0.7566752,0,0,0,0,0,0,0,0,0,0,0,0,0,0,0,0,-0.2296635,-0.1277019,-0.09871283,0.1113281,-0.7199707,-0.0246582,0,0,0,0,0,0
2.973331,0.8930173,0.740844,-0.07933155,0.04199905,0,0,0,0,0,0,0,0,0,0,0,0,0,0,-0.2255844,-0.1097936,-0.1017206,0.2232666,-0.769165,0.04077148,0,0,0,0,0,0
2.976664,0.9087183,0.7165664,-0.1685705,0.1050512,0,0,0,0,0,0,0,0,0,0,0,0,0,0,-0.2436384,-0.1012037,-0.1049519,0.3549805,-0.9608154,0.114502,0,0,0,0,0,0
2.979997,0.9168916,0.7086892,-0.2589892,0.1542295,0,0,0,0,0,0,0,0,0,0,0,0,0,0,-0.2311818,-0.06872972,-0.1022198,0.3309326,-1.08728,0.1171875,0,0,0,0,0,0
2.983331,0.9168916,0.7086892,-0.2589892,0.1542295,0,0,0,0,0,0,0,0,0,0,0,0,0,0,0,0,0,0.3309326,-1.08728,0.1171875,0,0,0,0,0,0
2.986664,0.9244941,0.6923701,-0.3233618,0.1915055,0,0,0,0,0,0,0,0,0,0,0,1,0,0,0,0,0,0.3201904,-0.9049072,0.06359863,0,0,0,0,0,0
2.989997,0.9244941,0.6923701,-0.3525435,0.2167011,0,0,0,0,0,0,0,0,0,0,0,1,0,0,0,0,0,0.3101807,-1.015869,0.03369141,0,0,0,0,0,0
2.993331,0.9332856,0.6929545,-0.3683691,0.2118938,0,0,0,0,0,0,0,0,0,0,0,1,0,0,0,0,0,0.321167,-1.013794,0.0769043,0,0,0,0,0,0
2.996664,0.9244941,0.6923701,-0.3919792,0.2009306,0,0,0,0,0,0,0,0,0,0,0,1,0,0,0,0,0,0.2808838,-1.061279,0.04406738,0,0,0,0,0,0
2.999997,0.9244941,0.6923701,-0.4115211,0.1547319,0,0,0,0,0,0,0,0,0,0,0,1,0,0,0,0,0,0.2630615,-0.9743652,-0.02697754,0,0,0,0,0,0
3.003331,0.9244941,0.6923701,-0.4229822,0.09508901,0,0,0,0,0,0,0,0,0,0,0,1,0,0,0,0,0,0.2105713,-0.9019775,-0.002319336,0,0,0,0,0,0
3.006664,0.9332856,0.6929545,-0.4466036,0.02315722,0,0,0,0,0,0,0,0,0,0,0,1,0,0,0,0,0,0.07006836,-0.8104248,0.08703613,0,0,0,0,0,0
3.009997,0.9244941,0.6923701,-0.4750387,-0.05053603,0,0,0,0,0,0,0,0,0,0,0,1,0,0,0,0,0,-0.02429199,-0.9886475,-0.01586914,0,0,0,0,0,0
3.013331,0.9244941,0.6923701,-0.5082179,-0.1417479,0,0,0,0,0,0,0,0,0,0,0,1,0,0,0,0,0,0.01513672,-0.9278564,-0.04968262,0,0,0,0,0,0
3.016664,0.9332856,0.6929545,-0.5523694,-0.2316388,0,0,0,0,0,0,0,0,0,0,0,1,0,0,0,0,0,0.015625,-0.8931885,-0.1402588,0,0,0,0,0,0
3.019997,0.9332856,0.6929545,-0.5979341,-0.333816,0,0,0,0,0,0,0,0,0,0,0,1,0,0,0,0,0,-0.02087402,-0.9348145,-0.1827393,0,0,0,0,0,0
3.023331,0.9244941,0.6923701,-0.6511916,-0.432873,0,0,0,0,0,0,0,0,0,0,0,1,0,0,-0.05074496,0.02122062,0.01660744,0.02026367,-0.9128418,-0.217041,0,0,0,0,0,0
3.026664,0.9244941,0.6923701,-0.712433,-0.5352876,0,0,0,0,0,0,0,0,0,0,0,1,0,0,-0.04023157,0.005247597,0.01999084,0.104248,-0.8530273,-0.2926025,0,0,0,0,0,0
3.029997,0.9244941,0.6923701,-0.7909365,-0.6492763,0,0,0,0,0,0,0,0,0,0,0,1,0,0,-0.01499435,-0.01724351,0.02224163,0.1577148,-0.8282471,-0.3337402,0,0,0,0,0,0
3.033331,0.9244941,0.6923701,-0.7909365,-0.6492763,0,0,0,0,0,0,0,0,0,0,0,1,0,0,0,0,0,0.1577148,-0.8282471,-0.3337402,0,0,0,0,0,0
3.036664,0.9332856,0.6929545,-0.8141426,-0.7267712,0,0,0,0,0,0,0,0,0,0,0,1,0,0,0,0,0,0.2236328,-0.9475098,-0.2293701,0,0,0,0,0,0
3.039997,0.9244941,0.6923701,-0.8067693,-0.7431815,0,0,0,0,0,0,0,0,0,0,0,1,0,0,0,0,0,0.1848145,-0.916626,-0.1791992,0,0,0,0,0,0
3.043331,0.9332856,0.6929545,-0.8000447,-0.7682021,0,0,0,0,0,0,0,0,0,0,0,1,0,0,0,0,0,0.1135254,-0.927002,-0.2116699,0,0,0,0,0,0
3.046664,0.9332856,0.6929545,-0.7675676,-0.7914298,0,0,0,0,0,0,0,0,0,0,0,1,0,0,0,0,0,0.1297607,-0.8432617,-0.1943359,0,0,0,0,0,0
3.049997,0.9332856,0.6929545,-0.7438167,-0.8154141,0,0,0,0,0,0,0,0,0,0,0,1,0,0,0,0,0,0.1663818,-0.9191895,-0.1522217,0,0,0,0,0,0
3.053331,0.9244941,0.6923701,-0.712302,-0.8475996,0,0,0,0,0,0,0,0,0,0,0,1,0,0,0,0,0,0.1732178,-0.9135742,-0.1217041,0,0,0,0,0,0
3.056664,0.923907,0.6839312,-0.6718884,-0.870672,0,0,0,0,0,0,0,0,0,0,0,1,0,0,0,0,0,0.1046143,-0.8969727,-0.06079102,0,0,0,0,0,0
3.059997,0.9327032,0.6845161,-0.6155977,-0.9015527,0,0,0,0,0,0,0,0,0,0,0,1,0,0,0,0,0,0.02526855,-0.9586182,0.01257324,0,0,0,0,0,0
3.063331,0.9327032,0.6845161,-0.5757334,-0.925144,0,0,0,0,0,0,0,0,0,0,0,1,0,0,0,0,0,0.03552246,-1.012573,0.04968262,0,0,0,0,0,0
3.066664,0.9327032,0.6845161,-0.5531238,-0.9590133,0,0,0,0,0,0,0,0,0,0,0,1,0,0,0.1651744,-0.01024531,0.07696475,0.08398438,-1.046631,0.03198242,0,0,0,0,0,0
3.069997,0.9327032,0.6845161,-0.520642,-0.965771,0,0,0,0,0,0,0,0,0,0,0,1,0,0,0.1537547,-0.01125034,0.07500229,0.08972168,-1.044922,-0.02441406,0,0,0,0,0,0
3.073331,0.9327032,0.6845161,-0.4965006,-0.9731412,0,0,0,0,0,0,0,0,0,0,0,1,0,0,0.1303223,-0.01568481,0.06527647,0.07275391,-1.060913,-0.03723145,0,0,0,0,0,0
3.076664,0.9327032,0.6845161,-0.4965006,-0.9731412,0,0,0,0,0,0,0,0,0,0,0,1,0,0,0,0,0,0.07275391,-1.060913,-0.03723145,0,0,0,0,0,0
3.079997,0.9327032,0.6845161,-0.4806126,-0.9810852,0,0,0,0,0,0,0,0,0,0,0,1,0,0,0,0,0,0.06933594,-1.084839,-0.02868652,0,0,0,0,0,0
3.083331,0.9327032,0.6845161,-0.448894,-0.9971008,0,0,0,0,0,0,0,0,0,0,0,0,0,0,0,0,0,0.07507324,-1.140503,-0.01489258,0,0,0,0,0,0
3.086664,0.9327032,0.6845161,-0.4167845,-1,0,0,0,0,0,0,0,0,0,0,0,0,0,0,0,0,0,0.1066895,-1.114624,-0.07312012,0,0,0,0,0,0
3.089997,0.9327032,0.6845161,-0.4009901,-1,0,0,0,0,0,0,0,0,0,0,0,0,0,0,0,0,0,0.05249023,-1.118896,-0.03625488,0,0,0,0,0,0
3.093331,0.9327032,0.6845161,-0.3686016,-1,0,0,0,0,0,0,0,0,0,0,0,0,0,0,0,0,0,0.06884766,-1.193359,-0.1156006,0,0,0,0,0,0
3.096664,0.9327032,0.6845161,-0.3444016,-1,0,0,0,0,0,0,0,0,0,0,0,0,0,0,0,0,0,0.02954102,-1.171631,0.03942871,0,0,0,0,0,0
3.099997,0.9327032,0.6845161,-0.3042357,-1,0,0,0,0,0,0,0,0,0,0,0,0,0,0,0,0,0,0.0201416,-1.100342,0.06481934,0,0,0,0,0,0
3.103331,0.9327032,0.6845161,-0.2722459,-1,0,0,0,0,0,0,0,0,0,0,0,0,0,0,0,0,0,0.02355957,-1.085938,0.05371094,0,0,0,0,0,0
3.106664,0.9327032,0.6845161,-0.2403741,-1,0,0,0,0,0,0,0,0,0,0,0,0,0,0,0,0,0,0.03222656,-1.063232,0.06115723,0,0,0,0,0,0
3.109997,0.9327032,0.6845161,-0.2086106,-1,0,0,0,0,0,0,0,0,0,0,0,0,0,0,0,0,0,0.05761719,-1.062134,0.04589844,0,0,0,0,0,0
3.113331,0.9327032,0.6845161,-0.1611441,-1,0,0,0,0,0,0,0,0,0,0,0,0,0,0,0,0,0,0.08776855,-1.06897,-0.009887695,0,0,0,0,0,0
3.116664,0.9327032,0.6845161,-0.113854,-1,0,0,0,0,0,0,0,0,0,0,0,0,0,0,0,0,0,0.08837891,-1.089722,-0.03918457,0,0,0,0,0,0
3.119997,0.9327032,0.6845161,-0.05884144,-1,0,0,0,0,0,0,0,0,0,0,0,0,0,0,0,0,0,0.06005859,-1.130981,-0.008422852,0,0,0,0,0,0
3.123331,0.9327032,0.6845161,0.003921574,-1,0,0,0,0,0,0,0,0,0,0,0,0,0,0,0,0,0,0.02429199,-1.136353,0.04650879,0,0,0,0,0,0
3.126664,0.9327032,0.6845161,0.07454614,-1,0,0,0,0,0,0,0,0,0,0,0,0,0,0,0,0,0,0.01989746,-1.152832,0.07788086,0,0,0,0,0,0
3.129997,0.9327032,0.6845161,0.1374799,-1,0,0,0,0,0,0,0,0,0,0,0,0,0,0,0,0,0,0.0291748,-1.149292,0.08764648,0,0,0,0,0,0
3.133331,0.9151183,0.6833416,0.2165419,-1,0,0,0,0,0,0,0,0,0,0,0,0,0,0,0,0,0,0.05981445,-1.126465,0.1385498,0,0,0,0,0,0
3.136664,0.8981643,0.6905887,0.3042357,-1,0,0,0,0,0,0,0,0,0,0,0,0,0,0,0.09120823,0.05572448,0.04797802,0.08483887,-1.074707,0.1785889,0,0,0,0,0,0
3.139997,0.8824759,0.7147655,0.4009901,-1,0,0,0,0,0,0,0,0,0,0,0,0,0,0,0.1024614,0.07072337,0.05847798,0.04736328,-1.093262,0.1859131,0,0,0,0,0,0
3.143331,0.8234377,0.7359226,0.5062566,-1,0,0,0,0,0,0,0,0,0,0,0,0,0,0,0.0908796,0.07358019,0.06158593,-0.02062988,-1.14624,0.1745605,0,0,0,0,0,0
3.146664,0.8234377,0.7359226,0.5062566,-1,0,0,0,0,0,0,0,0,0,0,0,0,0,0,0,0,0,-0.02062988,-1.14624,0.1745605,0,0,0,0,0,0
3.149997,0.7399471,0.7636887,0.6263045,-0.9374622,0,0,0,0,0,0,0,0,0,0,0,0,0,0,0,0,0,-0.08374023,-1.237183,0.1560059,0,0,0,0,0,0
3.153331,0.6234083,0.7802405,0.7456988,-0.8414034,0,0,0,0,0,0,0,0,0,0,0,0,0,0,0,0,0,-0.1126709,-1.286621,0.1638184,0,0,0,0,0,0
3.156664,0.492992,0.7957745,0.8637865,-0.696602,0,0,0,0,0,0,0,0,0,0,0,0,0,0,0,0,0,-0.1434326,-1.250488,0.1745605,0,0,0,0,0,0
3.159997,0.3351892,0.828341,0.9568346,-0.5201051,0,0,0,0,0,0,0,0,0,0,0,1,0,0,0,0,0,-0.2106934,-1.168335,0.1591797,0,0,0,0,0,0
3.163331,0.1881943,0.8564763,1,-0.3524597,0,0,0,0,0,0,0,0,0,0,0,1,0,0,0,0,0,-0.2263184,-1.068848,0.1416016,0,0,0,0,0,0
3.166664,0.04228272,0.8802494,1,-0.2086106,0,0,0,0,0,0,0,0,0,0,0,1,0,0,0,0,0,-0.1584473,-1.00708,0.09545898,0,0,0,0,0,0
3.169997,-0.1121814,0.9090564,1,-0.113854,0,0,0,0,0,0,0,0,0,0,0,1,0,0,0,0,0,0.03259277,-0.9697266,-0.008300781,0,0,0,0,0,0
3.173331,-0.2532092,0.9232396,1,0.01176485,0,0,0,0,0,0,0,0,0,0,0,1,0,0,0,0,0,0.1993408,-0.9932861,-0.09008789,0,0,0,0,0,0
3.176664,-0.3811558,0.9391364,1,0.1374799,0,0,0,0,0,0,0,0,0,0,0,1,0,0,0,0,0,0.21875,-0.989624,-0.04931641,0,0,0,0,0,0
3.179997,-0.5031205,0.9468173,1,0.2483314,0,0,0,0,0,0,0,0,0,0,0,1,0,0,0,0,0,0.09326172,-0.9482422,-0.06640625,0,0,0,0,0,0
3.183331,-0.6112997,0.9628969,1,0.3122526,0,0,0,0,0,0,0,0,0,0,0,1,0,0,-0.1314398,0.0397318,-0.02823707,-0.07006836,-0.8051758,-0.1651611,0,0,0,0,0,0
3.186664,-0.6755022,0.9233196,1,0.3524597,0,0,0,0,0,0,0,0,0,0,0,1,0,0,-0.1227105,0.0258338,-0.04889968,-0.01208496,-0.8583984,-0.1170654,0,0,0,0,0,0
3.189997,-0.6755022,0.9233196,1,0.3524597,0,0,0,0,0,0,0,0,0,0,0,1,0,0,0,0,0,-0.01208496,-0.8583984,-0.1170654,0,0,0,0,0,0
3.193331,-0.7566752,0.8767824,1,0.3766855,0,0,0,0,0,0,0,0,0,0,0,1,0,0,0,0,0,0.06103516,-0.9180908,-0.08557129,0,0,0,0,0,0
3.196664,-0.8111632,0.8031714,1,0.4091095,0,0,0,0,0,0,0,0,0,0,0,1,0,0,0,0,0,0.1323242,-0.9324951,-0.1104736,0,0,0,0,0,0
3.199997,-0.8674718,0.7475448,1,0.433522,0,0,0,0,0,0,0,0,0,0,0,1,0,0,0,0,0,0.1634521,-0.9190674,-0.1474609,0,0,0,0,0,0
3.203331,-0.9163012,0.7002302,1,0.4498426,0,0,0,0,0,0,0,0,0,0,0,1,0,0,0,0,0,0.1419678,-0.9180908,-0.1789551,0,0,0,0,0,0
3.206664,-0.9557259,0.6358177,1,0.4662001,0,0,0,0,0,0,0,0,0,0,0,1,0,0,0,0,0,0.1008301,-0.9177246,-0.2302246,0,0,0,0,0,0
3.209997,-0.9873765,0.579634,1,0.4825947,0,0,0,0,0,0,0,0,0,0,0,1,0,0,0,0,0,0.06298828,-0.8966064,-0.2830811,0,0,0,0,0,0
3.213331,-1,0.5149953,1,0.4908059,0,0,0,0,0,0,0,0,0,0,0,1,0,0,0,0,0,0.04089355,-0.8601074,-0.310791,0,0,0,0,0,0
3.216664,-1,0.4580168,1,0.4908059,0,0,0,0,0,0,0,0,0,0,0,1,0,0,0,0,0,0.02319336,-0.8421631,-0.3476563,0,0,0,0,0,0
3.219997,-1,0.3847782,1,0.4990265,0,0,0,0,0,0,0,0,0,0,0,1,0,0,0,0,0,0.02111816,-0.8526611,-0.364502,0,0,0,0,0,0
3.22333,-1,0.3202776,1,0.4990265,0,0,0,0,0,0,0,0,0,0,0,1,0,0,0,0,0,0.02941895,-0.8601074,-0.3555908,0,0,0,0,0,0
3.226664,-1,0.2562958,1,0.4990265,0,0,0,0,0,0,0,0,0,0,0,1,0,0,0,0,0,0.05883789,-0.8791504,-0.3048096,0,0,0,0,0,0
3.229997,-1,0.1927661,1,0.4990265,0,0,0,0,0,0,0,0,0,0,0,1,0,0,0.07421601,-0.06671944,-0.03798261,0.08825684,-0.8763428,-0.2801514,0,0,0,0,0,0
3.23333,-1,0.1217254,1,0.4990265,0,0,0,0,0,0,0,0,0,0,0,1,0,0,0.1084503,-0.06971806,-0.02024073,0.08410645,-0.8530273,-0.2386475,0,0,0,0,0,0
3.236664,-1,0.05884144,1,0.4990265,0,0,0,0,0,0,0,0,0,0,0,1,0,0,0.1298724,-0.0655129,-0.003690868,0.1240234,-0.8563232,-0.2285156,0,0,0,0,0,0
3.239997,-1,0.05884144,1,0.4990265,0,0,0,0,0,0,0,0,0,0,0,1,0,0,0,0,0,0.1240234,-0.8563232,-0.2285156,0,0,0,0,0,0
3.24333,-1,-0.01176485,1,0.4990265,0,0,0,0,0,0,0,0,0,0,0,1,0,0,0,0,0,0.1126709,-0.8533936,-0.1514893,0,0,0,0,0,0
