Timestamp, Left Stick X, Left Stick Y, Right Stick X, Right Stick Y, D-Pad Up, D-Pad Right,D-Pad Down, D-Pad Left, Button North, Button East, Button South, Button West, L1, R1, L2, R2, L3, R3,Gyroscope X, Gyroscope Y, Gyroscope Z, Accelerometer X, Accelerometer Y, Accelerometer Z,Touch 1, Touch 2, Touch 1 Pos X, Touch 1 Pos Y, Touch 2 Pos X, Touch 2 Pos Y
0,0.8818683,0.7062927,0,0,0,0,0,0,0,0,0,0,0,0,0,0,0,0,0,0,0,-0.07885742,-1.084351,-0.1512451,0,0,0,0,0,0
0.003333333,0.8656361,0.7220283,0,0,0,0,0,0,0,0,0,0,0,0,0,0,0,0,0,0,0,-0.1048584,-1.070068,-0.1663818,0,0,0,0,0,0
0.006666667,0.8345971,0.7707045,0,0,0,0,0,0,0,0,0,0,0,0,0,0,0,0,0.01149474,0.04572906,0.009995421,-0.07861328,-0.8842773,-0.09277344,0,0,0,0,0,0
0.01,0.7707045,0.8345971,0,0,0,0,0,0,0,0,0,0,0,0,0,0,0,0,0.001749341,0.02898908,-0.0254904,-0.02124023,-0.9102783,-0.1622314,0,0,0,0,0,0
0.01333333,0.7707045,0.8345971,0,0,0,0,0,0,0,0,0,0,0,0,0,0,0,0,0,0,0,-0.02124023,-0.9102783,-0.1622314,0,0,0,0,0,0
0.01666667,0.7554604,0.8593862,0,0,0,0,0,0,0,0,0,0,0,0,0,0,0,0,0,0,0,-0.05505371,-0.9102783,-0.1838379,0,0,0,0,0,0
0.02,0.7232483,0.8830822,0,0,0,0,0,0,0,0,0,0,0,0,0,0,0,0,0,0,0,-0.07263184,-0.9350586,-0.2188721,0,0,0,0,0,0
0.02333334,0.6905887,0.8981643,0,0,0,0,0,0,0,0,0,0,0,0,0,0,0,0,0,0,0,-0.07446289,-0.947876,-0.2409668,0,0,0,0,0,0
0.02666667,0.6676687,0.9315377,0,0,0,0,0,0,0,0,0,0,0,0,0,0,0,0,0,0,0,-0.07055664,-0.9534912,-0.2320557,0,0,0,0,0,0
0.03,0.6352481,0.9468793,0,0,0,0,0,0,0,0,0,0,0,0,0,0,0,0,0,0,0,-0.06860352,-0.9527588,-0.2180176,0,0,0,0,0,0
0.03333334,0.5957312,0.979558,0,0,0,0,0,0,0,0,0,0,0,0,0,0,0,0,0,0,0,-0.07336426,-0.9488525,-0.180542,0,0,0,0,0,0
0.03666667,0.5387272,0.9936524,0,0,0,0,0,0,0,0,0,0,0,0,0,0,0,0,0,0,0,-0.07727051,-0.9448242,-0.1323242,0,0,0,0,0,0
0.04,0.4825947,1,0,0,0,0,0,0,0,0,0,0,0,0,0,0,0,0,0,0,0,-0.05895996,-0.9697266,-0.09924316,0,0,0,0,0,0
0.04333334,0.4253754,1,0,0,0,0,0,0,0,0,0,0,0,0,0,0,0,0,0,0,0,-0.0300293,-1.012085,-0.09692383,0,0,0,0,0,0
0.04666667,0.3766855,1,0,0,0,0,0,0,0,0,0,0,0,0,0,0,0,0,0,0,0,-0.001708984,-1.052246,-0.1130371,0,0,0,0,0,0
0.05,0.3283107,1,0,0,0,0,0,0,0,0,0,0,0,0,0,0,0,0,0,0,0,0.001708984,-1.064087,-0.1212158,0,0,0,0,0,0
0.05333334,0.2882255,1,0,0,0,0,0,0,0,0,0,0,0,0,0,0,0,0,0,0,0,-0.0123291,-1.042847,-0.1224365,0,0,0,0,0,0
0.05666667,0.2403741,1,0,0,0,0,0,0,0,0,0,0,0,0,0,0,0,0,-0.0009226355,-0.02698709,0.01729942,-0.02856445,-1.028076,-0.1281738,0,0,0,0,0,0
0.06000001,0.1927661,1,0,0,0,0,0,0,0,0,0,0,0,0,0,0,0,0,-0.005247597,-0.03048604,0.01974096,-0.03344727,-1.021851,-0.1231689,0,0,0,0,0,0
0.06333334,0.1453634,1,0,0,0,0,0,0,0,0,0,0,0,0,0,0,0,0,-0.01074508,-0.03073592,0.02124027,-0.01660156,-1.087524,-0.09033203,0,0,0,0,0,0
0.06666667,0.09812176,1,0,0,0,0,0,0,0,0,0,0,0,0,0,0,0,0,-0.02745083,-0.02929626,0.01983842,-0.001953125,-1.1427,-0.05969238,0,0,0,0,0,0
0.07,0.05884144,1,0,0,0,0,0,0,0,0,0,0,0,0,0,0,0,0,-0.06422058,-0.03373455,0.0189913,0.01757813,-1.130737,-0.07836914,0,0,0,0,0,0
0.07333333,0.01176485,1,0,0,0,0,0,0,0,0,0,0,0,0,0,0,0,0,-0.1034526,-0.03998169,0.01324393,0.005126953,-1.011597,-0.1600342,0,0,0,0,0,0
0.07666666,0.01176485,1,0,0,0,0,0,0,0,0,0,0,0,0,0,0,0,0,0,0,0,0.005126953,-1.011597,-0.1600342,0,0,0,0,0,0
0.07999999,-0.02745281,1,0,0,0,0,0,0,0,0,0,0,0,0,0,0,0,0,0,0,0,0.03161621,-0.8782959,-0.2510986,0,0,0,0,0,0
0.08333332,-0.08240198,1,0,0,0,0,0,0,0,0,0,0,0,0,0,0,0,0,0,0,0,0.03491211,-0.8658447,-0.2823486,0,0,0,0,0,0
0.08666665,-0.1296006,1,0,0,0,0,0,0,0,0,0,0,0,0,0,0,0,0,0,0,0,-0.015625,-0.9578857,-0.229248,0,0,0,0,0,0
0.08999998,-0.1848525,1,-0.007979404,0.001841401,0,0,0,0,0,0,0,0,0,0,0,0,0,0,0,0,0,-0.06225586,-0.9754639,-0.173584,0,0,0,0,0,0
0.09333331,-0.2324234,1,-0.08070491,0.01614098,0,0,0,0,0,0,0,0,0,0,0,0,0,0,0,0,0,-0.07714844,-0.9595947,-0.1456299,0,0,0,0,0,0
0.09666664,-0.2882255,1,-0.1630563,0.02903743,0,0,0,0,0,0,0,0,0,0,0,0,0,0,0,0,0,-0.07299805,-0.927124,-0.1376953,0,0,0,0,0,0
0.09999997,-0.3283107,1,-0.2726134,0.03653582,0,0,0,0,0,0,0,0,0,0,0,0,0,0,0,0,0,-0.05786133,-0.9299316,-0.1466064,0,0,0,0,0,0
0.1033333,-0.3681803,1,-0.3644011,0.04048901,0,0,0,0,0,0,0,0,0,0,0,0,0,0,0,0,0,-0.04406738,-0.9567871,-0.1536865,0,0,0,0,0,0
0.1066666,-0.3901656,0.9576792,-0.4563832,0.04330643,0,0,0,0,0,0,0,0,0,0,0,0,0,0,0,0,0,-0.04309082,-0.979248,-0.1549072,0,0,0,0,0,0
0.11,-0.418953,0.8966377,-0.5392565,0.04522796,0,0,0,0,0,0,0,0,0,0,0,0,0,0,0,0,0,-0.0534668,-0.9897461,-0.1357422,0,0,0,0,0,0
0.1133333,-0.431746,0.844044,-0.6404782,0.03980373,0,0,0,0,0,0,0,0,0,0,0,1,0,0,0,0,0,-0.05700684,-1.010864,-0.1108398,0,0,0,0,0,0
0.1166666,-0.4341996,0.7646524,-0.7416935,0.01863552,0,0,0,0,0,0,0,0,0,0,0,1,0,0,0,0,0,-0.04052734,-1.037354,-0.1092529,0,0,0,0,0,0
0.12,-0.4293503,0.7029186,-0.8339561,-0.01904009,0,0,0,0,0,0,0,0,0,0,0,1,0,0,0,0,0,-0.0246582,-1.046753,-0.1185303,0,0,0,0,0,0
0.1233333,-0.4248336,0.650409,-0.9448887,-0.0505496,0,0,0,0,0,0,0,0,0,0,0,1,0,0,0,0,0,-0.01550293,-1.031982,-0.1293945,0,0,0,0,0,0
0.1266666,-0.4182494,0.5811076,-1,-0.09026043,0,0,0,0,0,0,0,0,0,0,0,1,0,0,0,0,0,-0.02209473,-1.033081,-0.1342773,0,0,0,0,0,0
0.13,-0.4128626,0.5297795,-1,-0.1059862,0,0,0,0,0,0,0,0,0,0,0,1,0,0,0,0,0,0.05883789,-1.023682,-0.1447754,0,0,0,0,0,0
0.1333333,-0.4000333,0.486527,-1,-0.1059862,0,0,0,0,0,0,0,0,0,0,0,1,0,0,0,0,0,0.01623535,-1.053101,-0.1558838,0,0,0,0,0,0
0.1366666,-0.3709246,0.4415769,-1,-0.1059862,0,0,0,0,0,0,0,0,0,0,0,1,0,0,0,0,0,-0.04724121,-1.06604,-0.1237793,0,0,0,0,0,0
0.1399999,-0.3506597,0.4062097,-1,-0.113854,0,0,0,0,0,0,0,0,0,0,0,1,0,0,-0.05872311,0.005497482,0.07321647,-0.06640625,-1.054077,-0.1191406,0,0,0,0,0,0
0.1433333,-0.3223457,0.3698493,-1,-0.1217254,0,0,0,0,0,0,0,0,0,0,0,1,0,0,-0.06247647,0.009996235,0.06847422,-0.05554199,-1.019287,-0.1351318,0,0,0,0,0,0
0.1466666,-0.2952329,0.341674,-1,-0.1296006,0,0,0,0,0,0,0,0,0,0,0,1,0,0,0,0,0,-0.05554199,-1.000122,-0.1569824,0,0,0,0,0,0
0.1499999,-0.268198,0.3134362,-1,-0.1453634,0,0,0,0,0,0,0,0,0,0,0,1,0,0,-0.07371624,0.006996796,0.05147642,-0.05725098,-0.9855957,-0.1865234,0,0,0,0,0,0
0.1533333,-0.2412582,0.2851233,-1,-0.1769445,0,0,0,0,0,0,0,0,0,0,0,1,0,0,-0.0762151,0.001499313,0.04348009,-0.05224609,-0.979126,-0.2128906,0,0,0,0,0,0
0.1566666,-0.2412582,0.2851233,-1,-0.1769445,0,0,0,0,0,0,0,0,0,0,0,1,0,0,0,0,0,-0.05224609,-0.979126,-0.2128906,0,0,0,0,0,0
0.1599999,-0.2086812,0.2631198,-1,-0.2086106,0,0,0,0,0,0,0,0,0,0,0,1,0,0,0,0,0,-0.0489502,-0.9732666,-0.2161865,0,0,0,0,0,0
0.1633333,-0.173578,0.2247978,-1,-0.2483314,0,0,0,0,0,0,0,0,0,0,0,1,0,0,0,0,0,-0.05749512,-0.9692383,-0.2138672,0,0,0,0,0,0
0.1666666,-0.1493903,0.203714,-1,-0.2882255,0,0,0,0,0,0,0,0,0,0,0,1,0,0,0,0,0,-0.06628418,-0.9705811,-0.2186279,0,0,0,0,0,0
0.1699999,-0.1050512,0.1685705,-1,-0.3283107,0,0,0,0,0,0,0,0,0,0,0,1,0,0,0,0,0,-0.06982422,-0.9627686,-0.2287598,0,0,0,0,0,0
0.1733332,-0.06828115,0.1262167,-1,-0.3766855,0,0,0,0,0,0,0,0,0,0,0,1,0,0,0,0,0,-0.06506348,-0.9370117,-0.2414551,0,0,0,0,0,0
0.1766666,-0.0380296,0.09094034,-1,-0.4253754,0,0,0,0,0,0,0,0,0,0,0,1,0,0,0,0,0,-0.06567383,-0.9152832,-0.2460938,0,0,0,0,0,0
0.1799999,-0.01293234,0.04675537,-1,-0.4739094,0,0,0,0,0,0,0,0,0,0,0,1,0,0,0,0,0,-0.0682373,-0.9002686,-0.2576904,0,0,0,0,0,0
0.1833332,-0.0003061539,0.003980001,-0.9831394,-0.5134615,0,0,0,0,0,0,0,0,0,0,0,1,0,0,0,0,0,-0.07836914,-0.8968506,-0.2585449,0,0,0,0,0,0
0.1866666,0,0,-0.9590133,-0.5531238,0,0,0,0,0,0,0,0,0,0,0,1,0,0,0,0,0,-0.05773926,-0.9106445,-0.291626,0,0,0,0,0,0
0.1899999,0,0,-0.9440273,-0.5935025,0,0,0,0,0,0,0,0,0,0,0,0,0,0,0,0,0,-0.1065674,-0.9047852,-0.2279053,0,0,0,0,0,0
0.1933332,0,0,-0.9115608,-0.6329178,0,0,0,0,0,0,0,0,0,0,0,0,0,0,0.07646498,-0.006497024,-0.005747368,-0.06335449,-0.9681396,-0.2504883,0,0,0,0,0,0
0.1966666,0,0,-0.8875827,-0.664692,0,0,0,0,0,0,0,0,0,0,0,0,0,0,0.07450282,-0.007611744,-0.00415186,-0.08581543,-0.9943848,-0.1973877,0,0,0,0,0,0
0.1999999,0,0,-0.8719043,-0.6887646,0,0,0,0,0,0,0,0,0,0,0,0,0,0,0.08296876,-0.009746331,0.001749341,-0.05004883,-1.022095,-0.1893311,0,0,0,0,0,0
0.2033332,0,0,-0.8719043,-0.6887646,0,0,0,0,0,0,0,0,0,0,0,0,0,0,0,0,0,-0.05004883,-1.022095,-0.1893311,0,0,0,0,0,0
0.2066665,0,0,-0.8569256,-0.7214118,0,0,0,0,0,0,0,0,0,0,0,0,0,0,0,0,0,-0.05615234,-1.031982,-0.166748,0,0,0,0,0,0
0.2099999,0,0,-0.8327313,-0.7450754,0,0,0,0,0,0,0,0,0,0,0,0,0,0,0,0,0,-0.04785156,-1.068359,-0.151123,0,0,0,0,0,0
0.2133332,0,0,-0.808669,-0.7688331,0,0,0,0,0,0,0,0,0,0,0,0,0,0,0,0,0,-0.03845215,-1.089722,-0.1872559,0,0,0,0,0,0
0.2166665,0,0,-0.7840977,-0.7840977,0,0,0,0,0,0,0,0,0,0,0,0,0,0,0,0,0,-0.0814209,-1.019287,-0.1101074,0,0,0,0,0,0
0.2199999,0,0,-0.7682021,-0.8000447,0,0,0,0,0,0,0,0,0,0,0,0,0,0,0,0,0,-0.1303711,-0.9417725,-0.09973145,0,0,0,0,0,0
0.2233332,0,0,-0.7529836,-0.8246963,0,0,0,0,0,0,0,0,0,0,0,0,0,0,0,0,0,-0.08972168,-0.9731445,-0.1524658,0,0,0,0,0,0
0.2266665,0,0,-0.7286666,-0.8401566,0,0,0,0,0,0,0,0,0,0,0,0,0,0,0,0,0,-0.1033936,-1.034058,-0.1674805,0,0,0,0,0,0
0.2299999,0,0,-0.7044476,-0.855685,0,0,0,0,0,0,0,0,0,0,0,0,0,0,0,0,0,-0.137085,-1.068237,-0.1534424,0,0,0,0,0,0
0.2333332,0,0,-0.6881471,-0.8631671,0,0,0,0,0,0,0,0,0,0,0,0,0,0,0,0,0,-0.1390381,-1.087036,-0.1831055,0,0,0,0,0,0
0.2366665,0,0,-0.6718884,-0.870672,0,0,0,0,0,0,0,0,0,0,0,0,0,0,0.0224897,-0.0207405,0.01874142,-0.1506348,-1.062256,-0.189209,0,0,0,0,0,0
0.2399998,0,0,-0.6640815,-0.8788145,0,0,0,0,0,0,0,0,0,0,0,0,0,0,0.02298947,-0.01749199,0.01749199,-0.1987305,-1.020508,-0.1230469,0,0,0,0,0,0
0.2433332,0.01355039,-0.03427453,-0.6394928,-0.8857571,0,0,0,0,0,0,0,0,0,0,0,0,0,0,0.01949266,-0.01074595,0.01349492,-0.1845703,-1.023682,-0.1143799,0,0,0,0,0,0
0.2466665,0.02799517,-0.09386617,-0.6239545,-0.9021508,0,0,0,0,0,0,0,0,0,0,0,0,0,0,0.01637678,-0.005997131,0.01199426,-0.1506348,-1.035034,-0.1461182,0,0,0,0,0,0
0.2499998,0.02799517,-0.09386617,-0.6239545,-0.9021508,0,0,0,0,0,0,0,0,0,0,0,0,0,0,0,0,0,-0.1506348,-1.035034,-0.1461182,0,0,0,0,0,0
0.2533332,0.03459542,-0.1729771,-0.5995105,-0.9091914,0,0,0,0,0,0,0,0,0,0,0,0,0,0,0,0,0,-0.1309814,-1.023071,-0.1556396,0,0,0,0,0,0
0.2566665,0.03653582,-0.2726134,-0.5757334,-0.925144,0,0,0,0,0,0,0,0,0,0,0,0,0,0,0,0,0,-0.1199951,-1.004761,-0.144043,0,0,0,0,0,0
0.2599998,0.03477282,-0.382501,-0.5597257,-0.9328762,0,0,0,0,0,0,0,0,0,0,0,0,0,0,0,0,0,-0.1070557,-1.003174,-0.1411133,0,0,0,0,0,0
0.2633332,0.02366718,-0.4834867,-0.5360461,-0.9490002,0,0,0,0,0,0,0,0,0,0,0,0,0,0,0,0,0,-0.07983398,-1.021362,-0.1467285,0,0,0,0,0,0
0.2666665,0.0106328,-0.5848043,-0.4954499,-0.9552274,0,0,0,0,0,0,0,0,0,0,0,0,0,0,0,0,0,-0.05773926,-1.035645,-0.1364746,0,0,0,0,0,0
0.2699998,0,-0.6862745,-0.4464209,-0.9521011,0,0,0,0,0,0,0,0,0,0,0,0,0,0,0,0,0,-0.03527832,-1.046387,-0.1219482,0,0,0,0,0,0
0.2733332,-0.01884747,-0.7878245,-0.3726343,-0.9296244,0,0,0,0,0,0,0,0,0,0,0,0,0,0,0,0,0,-0.02734375,-1.054077,-0.1029053,0,0,0,0,0,0
0.2766665,-0.0422083,-0.8710257,-0.2748873,-0.8788651,0,0,0,0,0,0,0,0,0,0,0,0,0,0,0,0,0,-0.07458496,-1.045044,-0.08898926,0,0,0,0,0,0
0.2799998,-0.05824172,-0.9357502,-0.1788149,-0.8103738,0,0,0,0,0,0,0,0,0,0,0,0,0,0,0.02583608,-0.002537472,-0.005536302,-0.1190186,-1.007202,-0.09436035,0,0,0,0,0,0
0.2833332,-0.09026043,-1,-0.07799055,-0.7241979,0,0,0,0,0,0,0,0,0,0,0,0,0,0,0.01774476,-0.004748599,-0.01674506,-0.1290283,-0.9819336,-0.1120605,0,0,0,0,0,0
0.2866665,-0.113854,-1,0.03245884,-0.6311441,0,0,0,0,0,0,0,0,0,0,0,0,0,0,0.008995879,-0.007996337,-0.02748741,-0.1278076,-0.9857178,-0.1300049,0,0,0,0,0,0
0.2899998,-0.113854,-1,0.03245884,-0.6311441,0,0,0,0,0,0,0,0,0,0,0,0,0,0,0,0,0,-0.1278076,-0.9857178,-0.1300049,0,0,0,0,0,0
0.2933331,-0.1374799,-1,0.1226068,-0.542973,0,0,0,0,0,0,0,0,0,0,0,0,0,0,0,0,0,-0.1204834,-1.01416,-0.1231689,0,0,0,0,0,0
0.2966665,-0.1532514,-1,0.2204763,-0.4375607,0,0,0,0,0,0,0,0,0,0,0,0,0,0,0,0,0,-0.1141357,-1.032715,-0.1065674,0,0,0,0,0,0
0.2999998,-0.1848525,-1,0.3055111,-0.3592274,0,0,0,0,0,0,0,0,0,0,0,0,0,0,0,0,0,-0.112915,-0.9866943,-0.1113281,0,0,0,0,0,0
0.3033331,-0.2086106,-1,0.4054196,-0.2895854,0,0,0,0,0,0,0,0,0,0,0,0,0,0,0,0,0,-0.109375,-0.9744873,-0.1300049,0,0,0,0,0,0
0.3066665,-0.2324234,-1,0.5256785,-0.2293228,0,0,0,0,0,0,0,0,0,0,0,0,0,0,0,0,0,-0.1025391,-0.963501,-0.1402588,0,0,0,0,0,0
0.3099998,-0.2403741,-1,0.6633714,-0.1575965,0,0,0,0,0,0,0,0,0,0,0,0,0,0,0,0,0,-0.09790039,-0.9857178,-0.1480713,0,0,0,0,0,0
0.3133331,-0.2562958,-1,0.7980403,-0.08699018,0,0,0,0,0,0,0,0,0,0,0,0,0,0,0,0,0,-0.09899902,-1.014282,-0.1351318,0,0,0,0,0,0
0.3166665,-0.2722459,-1,0.9446381,-0.0038874,0,0,0,0,0,0,0,0,0,0,0,0,0,0,0,0,0,-0.1262207,-1.012329,-0.06237793,0,0,0,0,0,0
0.3199998,-0.2802319,-1,1,0.09026043,0,0,0,0,0,0,0,0,0,0,0,1,0,0,0,0,0,-0.1812744,-0.9729004,-0.1031494,0,0,0,0,0,0
0.3233331,-0.2882255,-1,1,0.113854,0,0,0,0,0,0,0,0,0,0,0,1,0,0,-0.1314398,-0.02348924,-0.08546086,-0.1729736,-0.9465332,-0.1572266,0,0,0,0,0,0
0.3266664,-0.2962267,-1,1,0.1217254,0,0,0,0,0,0,0,0,0,0,0,1,0,0,-0.1386865,-0.02673776,-0.09670571,-0.1038818,-0.9128418,-0.1885986,0,0,0,0,0,0
0.3299998,-0.3042357,-1,1,0.1374799,0,0,0,0,0,0,0,0,0,0,0,1,0,0,-0.1252478,-0.03067763,-0.09572344,-0.001708984,-0.9277344,-0.2371826,0,0,0,0,0,0
0.3333331,-0.3042357,-1,1,0.1374799,0,0,0,0,0,0,0,0,0,0,0,1,0,0,0,0,0,-0.001708984,-0.9277344,-0.2371826,0,0,0,0,0,0
0.3366664,-0.3042357,-1,1,0.1611441,0,0,0,0,0,0,0,0,0,0,0,1,0,0,0,0,0,0.06433105,-0.9609375,-0.2834473,0,0,0,0,0,0
0.3399998,-0.3042357,-1,1,0.1848525,0,0,0,0,0,0,0,0,0,0,0,1,0,0,0,0,0,0.0645752,-0.980957,-0.3023682,0,0,0,0,0,0
0.3433331,-0.3042357,-1,1,0.1927661,0,0,0,0,0,0,0,0,0,0,0,1,0,0,0,0,0,0.01647949,-0.9764404,-0.2852783,0,0,0,0,0,0
0.3466664,-0.3042357,-1,1,0.2006854,0,0,0,0,0,0,0,0,0,0,0,1,0,0,0,0,0,-0.02636719,-0.9814453,-0.2446289,0,0,0,0,0,0
0.3499998,-0.3042357,-1,1,0.2165419,0,0,0,0,0,0,0,0,0,0,0,1,0,0,0,0,0,-0.04418945,-0.9916992,-0.2130127,0,0,0,0,0,0
0.3533331,-0.3042357,-1,1,0.2244794,0,0,0,0,0,0,0,0,0,0,0,1,0,0,0,0,0,-0.03186035,-1.015381,-0.1849365,0,0,0,0,0,0
0.3566664,-0.3042357,-1,1,0.2562958,0,0,0,0,0,0,0,0,0,0,0,1,0,0,0,0,0,-0.001953125,-1.116577,-0.1549072,0,0,0,0,0,0
0.3599997,-0.3042357,-1,0.9615933,0.2943653,0,0,0,0,0,0,0,0,0,0,0,1,0,0,0,0,0,-0.05578613,-1.118164,-0.1645508,0,0,0,0,0,0
0.3633331,-0.3042357,-1,0.9562946,0.3659893,0,0,0,0,0,0,0,0,0,0,0,1,0,0,0,0,0,-0.166748,-0.9152832,-0.1922607,0,0,0,0,0,0
0.3666664,-0.3042357,-1,0.957212,0.382097,0,0,0,0,0,0,0,0,0,0,0,1,0,0,0,0,0,-0.157959,-0.880127,-0.2193604,0,0,0,0,0,0
0.3699997,-0.3042357,-1,0.9576792,0.3901656,0,0,0,0,0,0,0,0,0,0,0,1,0,0,-0.1126984,-0.03423432,-0.08196246,-0.08398438,-0.8417969,-0.2271729,0,0,0,0,0,0
0.3733331,-0.3042357,-1,0.9576792,0.3901656,0,0,0,0,0,0,0,0,0,0,0,1,0,0,-0.07865468,-0.03160027,-0.07750139,-0.00378418,-0.8392334,-0.262085,0,0,0,0,0,0
0.3766664,-0.2882255,-1,0.9586299,0.4063328,0,0,0,0,0,0,0,0,0,0,0,1,0,0,-0.05047688,-0.03698306,-0.08046314,0.06103516,-0.8707275,-0.2867432,0,0,0,0,0,0
0.3799997,-0.2722459,-1,0.9596007,0.4225402,0,0,0,0,0,0,0,0,0,0,0,1,0,0,-0.0252405,-0.04323372,-0.07472187,0.07727051,-0.8909912,-0.3172607,0,0,0,0,0,0
0.3833331,-0.2403741,-1,0.9596007,0.4225402,0,0,0,0,0,0,0,0,0,0,0,1,0,0,-0.009495651,-0.0484778,-0.06596979,0.04272461,-0.9173584,-0.2923584,0,0,0,0,0,0
0.3866664,-0.2403741,-1,0.9596007,0.4225402,0,0,0,0,0,0,0,0,0,0,0,1,0,0,0,0,0,0.04272461,-0.9173584,-0.2923584,0,0,0,0,0,0
0.3899997,-0.2244794,-1,0.9600933,0.4306591,0,0,0,0,0,0,0,0,0,0,0,1,0,0,0,0,0,0.01977539,-0.911499,-0.2590332,0,0,0,0,0,0
0.393333,-0.1927661,-1,0.9600933,0.4306591,0,0,0,0,0,0,0,0,0,0,0,1,0,0,0,0,0,0.01208496,-0.9202881,-0.256958,0,0,0,0,0,0
0.3966664,-0.1611441,-1,0.9600933,0.4306591,0,0,0,0,0,0,0,0,0,0,0,1,0,0,0,0,0,0.01647949,-0.9448242,-0.2467041,0,0,0,0,0,0
0.3999997,-0.1296006,-1,0.9600933,0.4306591,0,0,0,0,0,0,0,0,0,0,0,1,0,0,0,0,0,0.02099609,-0.977417,-0.2325439,0,0,0,0,0,0
0.403333,-0.08240198,-1,0.9605904,0.4387882,0,0,0,0,0,0,0,0,0,0,0,1,0,0,0,0,0,0.01843262,-1.005615,-0.2188721,0,0,0,0,0,0
0.4066664,-0.035298,-1,0.9605904,0.4387882,0,0,0,0,0,0,0,0,0,0,0,1,0,0,0,0,0,0.02307129,-1.042236,-0.2072754,0,0,0,0,0,0
0.4099997,0.01176485,-1,0.9605904,0.4387882,0,0,0,0,0,0,0,0,0,0,0,1,0,0,0,0,0,0.02209473,-1.064209,-0.1868896,0,0,0,0,0,0
0.413333,0.06669273,-1,0.9600933,0.4306591,0,0,0,0,0,0,0,0,0,0,0,1,0,0,0,0,0,0.02575684,-1.060303,-0.1723633,0,0,0,0,0,0
0.4166664,0.113854,-1,0.9600933,0.4306591,0,0,0,0,0,0,0,0,0,0,0,1,0,0,0,0,0,0.02514648,-1.048218,-0.166626,0,0,0,0,0,0
0.4199997,0.1611441,-1,0.9140826,0.4119256,0,0,0,0,0,0,0,0,0,0,0,1,0,0,0,0,0,0.03527832,-1.038696,-0.164917,0,0,0,0,0,0
0.423333,0.2086106,-1,0.8125587,0.365844,0,0,0,0,0,0,0,0,0,0,0,1,0,0,0,0,0,0.05810547,-1.031006,-0.1647949,0,0,0,0,0,0
0.4266663,0.2722459,-1,0.6746542,0.3093718,0,0,0,0,0,0,0,0,0,0,0,1,0,0,0.0779643,0.03023615,0.03773272,0.07373047,-1.028809,-0.1619873,0,0,0,0,0,0
0.4299997,0.3283107,-1,0.4902577,0.2260053,0,0,0,0,0,0,0,0,0,0,0,0,0,0,0.0727167,0.03498398,0.04273043,0.06994629,-1.048584,-0.1529541,0,0,0,0,0,0
0.433333,0.3283107,-1,0.4902577,0.2260053,0,0,0,0,0,0,0,0,0,0,0,0,0,0,0,0,0,0.06994629,-1.048584,-0.1529541,0,0,0,0,0,0
0.4366663,0.3928797,-1,0.240353,0.1077445,0,0,0,0,0,0,0,0,0,0,0,0,0,0,0,0,0,0.08093262,-1.089966,-0.1506348,0,0,0,0,0,0
0.4399997,0.4498426,-1,0,0,0,0,0,0,0,0,0,0,0,0,0,0,0,0,0,0,0,0.1140137,-1.216187,-0.05517578,0,0,0,0,0,0
0.443333,0.523744,-1,0,0,0,0,0,0,0,0,0,0,0,0,0,0,0,0,0,0,0,0.1347656,-1.137329,-0.1400146,0,0,0,0,0,0
0.4466663,0.5962749,-0.9884557,0,0,0,0,0,0,0,0,0,0,0,0,0,0,0,0,0,0,0,-0.12854,-0.9320068,-0.07910156,0,0,0,0,0,0
0.4499997,0.6604159,-0.9485974,0,0,0,0,0,0,0,0,0,0,0,0,0,0,0,0,0,0,0,0.01245117,-1.02124,-0.1835938,0,0,0,0,0,0
0.453333,0.7159706,-0.8999631,0,0,0,0,0,0,0,0,0,0,0,0,0,0,0,0,0,0,0,-0.03552246,-0.9093018,-0.1341553,0,0,0,0,0,0
0.4566663,0.771321,-0.8432577,0,0,0,0,0,0,0,0,0,0,0,0,0,0,0,0,0,0,0,-0.08776855,-0.899292,-0.1251221,0,0,0,0,0,0
0.4599997,0.8099219,-0.7859832,0,0,0,0,0,0,0,0,0,0,0,0,0,0,0,0,0.01424464,0.06997365,0.04623259,-0.06433105,-0.9090576,-0.1074219,0,0,0,0,0,0
0.463333,0.8569256,-0.7214118,0,0,0,0,0,0,0,0,0,0,0,0,0,0,0,0,0.01753008,0.06781371,0.03529081,-0.04980469,-0.9364014,-0.1181641,0,0,0,0,0,0
0.4666663,0.8569256,-0.7214118,0,0,0,0,0,0,0,0,0,0,0,0,0,0,0,0,0,0,0,-0.04980469,-0.9364014,-0.1181641,0,0,0,0,0,0
0.4699996,0.8869745,-0.6562817,0,0,0,0,0,0,0,0,0,0,0,0,0,0,0,0,0,0,0,-0.05212402,-0.9588623,-0.1346436,0,0,0,0,0,0
0.473333,0.9268799,-0.6006819,0,0,0,0,0,0,0,0,0,0,0,0,0,0,0,0,0,0,0,-0.0513916,-0.9804688,-0.1481934,0,0,0,0,0,0
0.4766663,0.9490002,-0.5360461,0,0,0,0,0,0,0,0,0,0,0,0,0,0,0,0,0,0,0,-0.05053711,-0.9884033,-0.1435547,0,0,0,0,0,0
0.4799996,0.9810852,-0.4806126,0,0,0,0,0,0,0,0,0,0,0,0,0,0,0,0,0,0,0,-0.02697754,-1.018677,-0.1132813,0,0,0,0,0,0
0.483333,1,-0.4086611,0,0,0,0,0,0,0,0,0,0,0,0,0,0,0,0,0,0,0,-0.02233887,-1.064331,-0.105957,0,0,0,0,0,0
0.4866663,1,-0.3444016,0,0,0,0,0,0,0,0,0,0,0,0,0,0,0,0,0,0,0,-0.0402832,-1.068359,-0.1306152,0,0,0,0,0,0
0.4899996,1,-0.2722459,0,0,0,0,0,0,0,0,0,0,0,0,0,0,0,0,0,0,0,-0.08630371,-1.037598,-0.2045898,0,0,0,0,0,0
0.493333,1,-0.2086106,0,0,0,0,0,0,0,0,0,0,0,0,0,0,0,0,0,0,0,-0.1206055,-0.9985352,-0.2514648,0,0,0,0,0,0
0.4966663,1,-0.1532514,0,0,0,0,0,0,0,0,0,0,0,0,0,0,0,0,0,0,0,-0.1303711,-0.9829102,-0.2648926,0,0,0,0,0,0
0.4999996,1,-0.1059862,0,0,0,0,0,0,0,0,0,0,0,0,0,0,0,0,0,0,0,-0.133667,-0.9973145,-0.2596436,0,0,0,0,0,0
0.503333,1,-0.05099206,0,0,0,0,0,0,0,0,0,0,0,0,0,0,0,0,0,0,0,-0.1263428,-1.019775,-0.2391357,0,0,0,0,0,0
0.5066663,1,-0.003921574,0,0,0,0,0,0,0,0,0,0,0,0,0,0,0,0,-0.05466616,0.02998566,-0.00415186,-0.1241455,-1.027344,-0.2160645,0,0,0,0,0,0
0.5099996,1,0.035298,0,0,0,0,0,0,0,0,0,0,0,0,0,0,0,0,-0.06996796,0.02723753,-0.00674691,-0.1123047,-1.029541,-0.1859131,0,0,0,0,0,0
0.513333,1,0.08240198,0,0,0,0,0,0,0,0,0,0,0,0,0,0,0,0,-0.08071303,0.0224897,-0.008496109,-0.1049805,-1.025513,-0.1744385,0,0,0,0,0,0
0.5166663,1,0.08240198,0,0,0,0,0,0,0,0,0,0,0,0,0,0,0,0,0,0,0,-0.1049805,-1.025513,-0.1744385,0,0,0,0,0,0
0.5199996,1,0.1217254,0,0,0,0,0,0,0,0,0,0,0,0,0,0,0,0,-0.09045857,0.01799176,-0.01174462,-0.100708,-1.025146,-0.1789551,0,0,0,0,0,0
0.523333,1,0.2324234,0,0,0,0,0,0,0,0,0,0,0,0,0,1,0,0,-0.1151972,0.00674691,-0.01924119,-0.0904541,-1.030029,-0.1810303,0,0,0,0,0,0
0.5266663,1,0.2802319,0,0,0,0,0,0,0,0,0,0,0,0,0,1,0,0,-0.1236933,0.004747826,-0.0224897,-0.09838867,-1.04126,-0.1800537,0,0,0,0,0,0
0.5299996,1,0.3202776,0,0,0,0,0,0,0,0,0,0,0,0,0,1,0,0,-0.1238638,0.003921201,-0.02283523,-0.09960938,-1.056274,-0.1586914,0,0,0,0,0,0
0.5333329,1,0.3766855,0,0,0,0,0,0,0,0,0,0,0,0,0,1,0,0,-0.1469327,0.00449794,-0.02698764,-0.1008301,-1.064697,-0.1403809,0,0,0,0,0,0
0.5366663,1,0.3766855,0,0,0,0,0,0,0,0,0,0,0,0,0,1,0,0,0,0,0,-0.1008301,-1.064697,-0.1403809,0,0,0,0,0,0
0.5399996,1,0.433522,0,0,0,0,0,0,0,0,0,0,0,0,0,1,0,0,0,0,0,-0.112915,-1.028564,-0.1191406,0,0,0,0,0,0
0.5433329,1,0.4980331,0,0,0,0,0,0,0,0,0,0,0,0,0,1,0,0,0,0,0,-0.138916,-0.9051514,-0.1113281,0,0,0,0,0,0
0.5466663,0.9773847,0.5624949,0,0,0,0,0,0,0,0,0,0,0,0,0,1,0,0,0,0,0,-0.1341553,-0.8342285,-0.006469727,0,0,0,0,0,0
0.5499996,0.9457361,0.6185194,0,0,0,0,0,0,0,0,0,0,0,0,0,1,0,0,0,0,0,-0.09191895,-0.7301025,-0.1878662,0,0,0,0,0,0
0.5533329,0.914526,0.6749122,0,0,0,0,0,0,0,0,0,0,0,0,0,1,0,0,0,0,0,-0.04931641,-0.8742676,-0.2596436,0,0,0,0,0,0
0.5566663,0.8743551,0.7226405,0,0,0,0,0,0,0,0,1,0,0,0,0,1,0,0,0,0,0,0.005493164,-0.8918457,-0.3094482,0,0,0,0,0,0
0.5599996,0.8426419,0.7627706,0,0,0,0,0,0,0,0,1,0,0,0,0,1,0,0,-0.06746911,-0.0007496566,-0.1024531,0.04394531,-0.9212646,-0.4089355,0,0,0,0,0,0
0.5633329,0.8191673,0.7951917,0,0,0,0,0,0,0,0,1,0,0,0,0,1,0,0,-0.03644411,-0.01153294,-0.08741972,0.04174805,-0.9331055,-0.4019775,0,0,0,0,0,0
0.5666662,0.7951917,0.8191673,0,0,0,0,0,0,0,0,1,0,0,0,0,1,0,0,-0.01099496,-0.01674233,-0.09145811,0.02832031,-0.890625,-0.3325195,0,0,0,0,0,0
0.5699996,0.7951917,0.8191673,0,0,0,0,0,0,0,0,1,0,0,0,0,1,0,0,0,0,0,0.02832031,-0.890625,-0.3325195,0,0,0,0,0,0
0.5733329,0.771321,0.8432577,0,0,0,0,0,0,0,0,1,0,0,0,0,1,0,0,0,0,0,-0.003051758,-0.9713135,-0.2850342,0,0,0,0,0,0
0.5766662,0.7481521,0.8761782,0,0,0,0,0,0,0,0,1,0,0,0,0,1,0,0,0,0,0,-0.01013184,-1.011597,-0.2913818,0,0,0,0,0,0
0.5799996,0.7238518,0.8918174,0,0,0,0,0,0,0,0,1,0,0,0,0,1,0,0,0,0,0,-0.01660156,-1.008057,-0.2783203,0,0,0,0,0,0
0.5833329,0.691781,0.91571,0,0,0,0,0,0,0,0,1,0,0,0,0,1,0,0,0,0,0,-0.02258301,-0.9870605,-0.2548828,0,0,0,0,0,0
0.5866662,0.6682492,0.9403506,0,0,0,0,0,0,0,0,1,0,0,0,0,1,0,0,0,0,0,-0.02062988,-0.9775391,-0.2518311,0,0,0,0,0,0
0.5899996,0.6280115,0.9640176,0,0,0,0,0,0,0,0,1,0,0,0,0,1,0,0,0,0,0,-0.01953125,-0.9796143,-0.2601318,0,0,0,0,0,0
0.5933329,0.5957312,0.979558,0,0,0,0,0,0,0,0,1,0,0,0,0,1,0,0,0,0,0,-0.01513672,-0.9760742,-0.2661133,0,0,0,0,0,0
0.5966662,0.5469962,0.9941757,0,0,0,0,0,0,0,0,1,0,0,0,0,1,0,0,0,0,0,-0.008056641,-0.9677734,-0.260376,0,0,0,0,0,0
0.5999995,0.4990265,1,0,0,0,0,0,0,0,0,1,0,0,0,0,1,0,0,0,0,0,0.0002441406,-0.9671631,-0.25,0,0,0,0,0,0
0.6033329,0.4498426,1,0,0,0,0,0,0,0,0,1,0,0,0,0,1,0,0,0,0,0,0.005981445,-0.9748535,-0.2521973,0,0,0,0,0,0
0.6066662,0.4009901,1,0,0,0,0,0,0,0,0,1,0,0,0,0,1,0,0,0,0,0,0.01245117,-0.975708,-0.2565918,0,0,0,0,0,0
0.6099995,0.3444016,1,0,0,0,0,0,0,0,0,1,0,0,0,0,1,0,0,0.06671944,-0.01599267,0.005497482,0.007080078,-0.9724121,-0.2567139,0,0,0,0,0,0
0.6133329,0.2882255,1,0,0,0,0,0,0,0,0,1,0,0,0,0,1,0,0,0.06366748,-0.01683958,0.01199532,-0.006958008,-0.9667969,-0.2574463,0,0,0,0,0,0
0.6166662,0.2882255,1,0,0,0,0,0,0,0,0,1,0,0,0,0,1,0,0,0,0,0,-0.006958008,-0.9667969,-0.2574463,0,0,0,0,0,0
0.6199995,0.2244794,1,0,0,0,0,0,0,0,0,1,0,0,0,0,1,0,0,0,0,0,-0.01879883,-0.97229,-0.2570801,0,0,0,0,0,0
0.6233329,0.1532514,1,0,0,0,0,0,0,0,0,1,0,0,0,0,1,0,0,0,0,0,-0.03662109,-0.9865723,-0.2601318,0,0,0,0,0,0
0.6266662,0.07454614,1,0,0,0,0,0,0,0,0,1,0,0,0,0,1,0,0,0,0,0,-0.02502441,-1.003174,-0.2564697,0,0,0,0,0,0
0.6299995,-0.01960851,1,0,0,0,0,0,0,0,0,1,0,0,0,0,1,0,0,0,0,0,-0.008544922,-1.027344,-0.2387695,0,0,0,0,0,0
0.6333328,-0.1059862,1,0,0,0,0,0,0,0,0,1,0,0,0,0,1,0,0,0,0,0,-0.007324219,-1.037231,-0.213501,0,0,0,0,0,0
0.6366662,-0.2165419,1,0,0,0,0,0,0,0,0,1,0,0,0,0,1,0,0,0,0,0,-0.01049805,-1.040894,-0.1928711,0,0,0,0,0,0
0.6399995,-0.3122526,1,0,0,0,0,0,0,0,0,1,0,0,0,0,1,0,0,0,0,0,-0.004638672,-1.036377,-0.1151123,0,0,0,0,0,0
0.6433328,-0.4172379,1,0,0,0,0,0,0,0,0,1,0,0,0,0,1,0,0,0,0,0,0.015625,-0.9996338,-0.1062012,0,0,0,0,0,0
0.6466662,-0.5149953,1,0,0,0,0,0,0,0,0,1,0,0,0,0,1,0,0,0,0,0,0.0480957,-1.013184,-0.1306152,0,0,0,0,0,0
0.6499995,-0.6035143,0.9712184,0,0,0,0,0,0,0,0,1,0,0,0,0,1,0,0,0,0,0,0.08251953,-1.046021,-0.1616211,0,0,0,0,0,0
0.6533328,-0.6760875,0.9321206,0,0,0,0,0,0,0,0,1,0,0,0,0,1,0,0,0,0,0,0.0949707,-1.066772,-0.1833496,0,0,0,0,0,0
0.6566662,-0.7402433,0.8842907,0,0,0,0,0,0,0,0,1,0,0,0,0,1,0,0,0.0969556,0.01499313,0.08546086,0.0748291,-1.085449,-0.1804199,0,0,0,0,0,0
0.6599995,-0.7872236,0.8271842,0,0,0,0,0,0,0,0,1,0,0,0,0,1,0,0,0.09071584,0.01824313,0.09671359,0.03149414,-1.081299,-0.1616211,0,0,0,0,0,0
0.6633328,-0.7872236,0.8271842,0,0,0,0,0,0,0,0,1,0,0,0,0,1,0,0,0,0,0,0.03149414,-1.081299,-0.1616211,0,0,0,0,0,0
0.6666662,-0.8438712,0.7798811,0,0,0,0,0,0,0,0,1,0,0,0,0,1,0,0,0,0,0,0.009765625,-1.060059,-0.1593018,0,0,0,0,0,0
0.6699995,-0.8836871,0.731741,0,0,0,0,0,0,0,0,1,0,0,0,0,0,0,0,0,0,0,-0.006713867,-1.044312,-0.151001,0,0,0,0,0,0
0.6733328,-0.923907,0.6839312,0,0,0,0,0,0,0,0,1,0,0,0,0,0,0,0,0,0,0,-0.009399414,-1.050293,-0.1601563,0,0,0,0,0,0
0.6766661,-0.9551592,0.6274477,0,0,0,0,0,0,0,0,1,0,0,0,0,0,0,0,0,0,0,0.01220703,-1.060059,-0.1582031,0,0,0,0,0,0
0.6799995,-0.9873765,0.579634,0,0,0,0,0,0,0,0,1,0,0,0,0,0,0,0,0,0,0,-0.01062012,-1.060913,-0.1456299,0,0,0,0,0,0
0.6833328,-1,0.5227324,0,0,0,0,0,0,0,0,1,0,0,0,0,0,0,0,0,0,0,-0.01599121,-1.035156,-0.1287842,0,0,0,0,0,0
0.6866661,-1,0.4825947,0,0,0,0,0,0,0,0,0,0,0,0,0,0,0,0,0,0,0,-0.02978516,-1.07959,-0.168335,0,0,0,0,0,0
0.6899995,-1,0.433522,0,0,0,0,0,0,0,0,0,0,0,0,0,0,0,0,0,0,0,-0.0447998,-0.8609619,-0.1644287,0,0,0,0,0,0
0.6933328,-1,0.3847782,0,0,0,0,0,0,0,0,0,0,0,0,0,0,0,0,0,0,0,-0.09509277,-0.9748535,-0.1392822,0,0,0,0,0,0
0.6966661,-1,0.336352,0,0,0,0,0,0,0,0,0,0,0,0,0,0,0,0,0,0,0,-0.1585693,-0.9396973,-0.1760254,0,0,0,0,0,0
0.6999995,-1,0.2882255,0,0,0,0,0,0,0,0,0,0,0,0,0,0,0,0,0.004747826,0.03798261,0.03248512,-0.1169434,-0.9140625,-0.1824951,0,0,0,0,0,0
0.7033328,-1,0.2483314,0,0,0,0,0,0,0,0,0,0,0,0,0,0,0,0,0.009245765,0.03698306,0.01449336,-0.0435791,-0.904541,-0.1738281,0,0,0,0,0,0
0.7066661,-1,0.2483314,0,0,0,0,0,0,0,0,0,0,0,0,0,0,0,0,0,0,0,-0.0435791,-0.904541,-0.1738281,0,0,0,0,0,0
0.7099994,-1,0.2006854,0,0,0,0,0,0,0,0,0,0,0,0,0,0,0,0,0,0,0,0.01123047,-0.8887939,-0.2022705,0,0,0,0,0,0
0.7133328,-1,0.1532514,0,0,0,0,0,0,0,0,0,0,0,0,0,0,0,0,0,0,0,0.03381348,-0.8856201,-0.2338867,0,0,0,0,0,0
0.7166661,-1,0.09812176,0,0,0,0,0,0,0,0,0,0,0,0,0,0,0,0,0,0,0,0.008056641,-0.892334,-0.2416992,0,0,0,0,0,0
0.7199994,-1,0.035298,0,0,0,0,0,0,0,0,0,0,0,0,0,0,0,0,0,0,0,-0.04553223,-0.9122314,-0.2346191,0,0,0,0,0,0
0.7233328,-1,-0.02745281,0,0,0,0,0,0,0,0,0,0,0,0,0,0,0,0,0,0,0,-0.09094238,-0.9432373,-0.2095947,0,0,0,0,0,0
0.7266661,-1,-0.09026043,0,0,0,0,0,0,0,0,0,0,0,0,0,0,0,0,0,0,0,-0.1031494,-0.967041,-0.18396,0,0,0,0,0,0
0.7299994,-1,-0.1453634,0,0,0,0,0,0,0,0,0,0,0,0,0,0,0,0,0,0,0,-0.09240723,-0.9891357,-0.1495361,0,0,0,0,0,0
0.7333328,-1,-0.1927661,0,0,0,0,0,0,0,0,0,0,0,0,0,0,0,0,0,0,0,-0.08068848,-0.9799805,-0.1396484,0,0,0,0,0,0
0.7366661,-1,-0.2324234,0,0,0,0,0,0,0,0,0,0,0,0,0,0,0,0,0,0,0,-0.07568359,-0.9804688,-0.1480713,0,0,0,0,0,0
0.7399994,-1,-0.2802319,0,0,0,0,0,0,0,0,0,0,0,0,0,0,0,0,0,0,0,-0.07275391,-0.9848633,-0.1643066,0,0,0,0,0,0
0.7433327,-1,-0.3122526,0,0,0,0,0,0,0,0,0,0,0,0,0,0,0,0,0.006996796,-0.002748741,-0.03848238,-0.06982422,-0.9875488,-0.1647949,0,0,0,0,0,0
0.7466661,-1,-0.3605264,0,0,0,0,0,0,0,0,0,0,0,0,0,0,0,0,0.001845271,-0.005305154,-0.03552147,-0.07067871,-0.9956055,-0.1643066,0,0,0,0,0,0
0.7499994,-1,-0.3605264,0,0,0,0,0,0,0,0,0,0,0,0,0,0,0,0,0,0,0,-0.07067871,-0.9956055,-0.1643066,0,0,0,0,0,0
0.7533327,-1,-0.3847782,0,0,0,0,0,0,0,0,0,0,0,0,0,0,0,0,0,0,0,-0.07019043,-0.9957275,-0.177002,0,0,0,0,0,0
0.7566661,-1,-0.4167845,0,0,0,0,0,0,0,0,0,0,0,0,0,0,0,0,0,0,0,-0.07141113,-0.9968262,-0.1811523,0,0,0,0,0,0
0.7599994,-0.9880918,-0.4484112,0,0,0,0,0,0,0,0,0,0,0,0,0,0,0,0,0,0,0,-0.07104492,-0.9893799,-0.177124,0,0,0,0,0,0
0.7633327,-0.9810852,-0.4806126,0,0,0,0,0,0,0,0,0,0,0,0,0,0,0,0,0,0,0,-0.06079102,-0.9888916,-0.1544189,0,0,0,0,0,0
0.7666661,-0.9647085,-0.5041893,0,0,0,0,0,0,0,0,0,0,0,0,0,0,0,0,0,0,0,-0.01257324,-1.058594,-0.1217041,0,0,0,0,0,0
0.7699994,-0.9579193,-0.5365938,0,0,0,0,0,0,0,0,0,0,0,0,0,0,0,0,0,0,0,0.03771973,-1.098511,-0.08276367,0,0,0,0,0,0
0.7733327,-0.9417656,-0.5602909,0,0,0,0,0,0,0,0,0,0,0,0,0,0,0,0,0,0,0,0.02990723,-1.059937,-0.1455078,0,0,0,0,0,0
0.776666,-0.9257216,-0.5840389,0,0,0,0,0,0,0,0,0,0,0,0,0,0,0,0,0,0,0,-0.01123047,-0.9418945,-0.2169189,0,0,0,0,0,0
0.7799994,-0.9097829,-0.6078463,0,0,0,0,0,0,0,0,0,0,0,0,0,0,0,0,0,0,0,-0.01916504,-0.901001,-0.2663574,0,0,0,0,0,0
0.7833327,-0.8939448,-0.631721,0,0,0,0,0,0,0,0,0,0,0,0,0,0,0,0,0,0,0,-0.01501465,-0.9359131,-0.27771,0,0,0,0,0,0
0.786666,-0.8782014,-0.6556707,0,0,0,0,0,0,0,0,0,0,0,0,0,0,0,0,0,0,0,-0.04821777,-0.9912109,-0.2283936,0,0,0,0,0,0
0.7899994,-0.8619251,-0.6712689,0,0,0,0,0,0,0,0,0,0,0,0,0,0,0,0,0,0,0,-0.07775879,-1.01123,-0.1870117,0,0,0,0,0,0
0.7933327,-0.8463467,-0.6953552,0,0,0,0,0,0,0,0,0,0,0,0,0,0,0,0,0,0,0,-0.08459473,-1,-0.1523438,0,0,0,0,0,0
0.796666,-0.8228048,-0.7274072,-0.04959631,0,0,0,0,0,0,0,0,0,0,0,0,1,0,0,0,0,0,-0.07727051,-0.99646,-0.1437988,0,0,0,0,0,0
0.7999994,-0.7987735,-0.7510855,-0.1326413,0,0,0,0,0,0,0,0,0,0,0,0,1,0,0,0,0,0,-0.0637207,-0.9851074,-0.1544189,0,0,0,0,0,0
0.8033327,-0.7748705,-0.7748705,-0.2249135,0,0,0,0,0,0,0,0,0,0,0,0,1,0,0,-0.03798261,-0.0154929,-0.01874142,-0.04614258,-0.9742432,-0.1751709,0,0,0,0,0,0
0.806666,-0.7431815,-0.8067693,-0.3079585,0,0,0,0,0,0,0,0,0,0,0,0,1,0,0,-0.03183093,-0.0168381,-0.01799139,-0.0345459,-0.9700928,-0.1875,0,0,0,0,0,0
0.8099993,-0.6947249,-0.8376398,-0.4002363,-0.003201891,0,0,0,0,0,0,0,0,0,0,0,1,0,0,-0.03098581,-0.02174004,-0.01799176,-0.04101563,-0.9819336,-0.1959229,0,0,0,0,0,0
0.8133327,-0.6556707,-0.8782014,-0.5018321,-0.01706912,0,0,0,0,0,0,0,0,0,0,0,1,0,0,-0.02923661,-0.02323936,-0.0172421,-0.0390625,-0.9926758,-0.2000732,0,0,0,0,0,0
0.816666,-0.6000989,-0.9180321,-0.6033807,-0.0249921,0,0,0,0,0,0,0,0,0,0,0,1,0,0,-0.02722015,-0.02237589,-0.01476347,-0.03771973,-1.003296,-0.1937256,0,0,0,0,0,0
0.8199993,-0.6000989,-0.9180321,-0.6033807,-0.0249921,0,0,0,0,0,0,0,0,0,0,0,1,0,0,0,0,0,-0.03771973,-1.003296,-0.1937256,0,0,0,0,0,0
0.8233327,-0.5360461,-0.9490002,-0.7050209,-0.0406033,0,0,0,0,0,0,0,0,0,0,0,1,0,0,0,0,0,-0.0345459,-1.007324,-0.1811523,0,0,0,0,0,0
0.826666,-0.4724252,-0.9805801,-0.8066644,-0.05680735,0,0,0,0,0,0,0,0,0,0,0,1,0,0,0,0,0,-0.0291748,-1.014893,-0.168457,0,0,0,0,0,0
0.8299993,-0.3928797,-1,-0.8897493,-0.06547939,0,0,0,0,0,0,0,0,0,0,0,1,0,0,0,0,0,-0.04040527,-0.9931641,-0.09619141,0,0,0,0,0,0
0.8333327,-0.3042357,-1,-0.9728299,-0.074232,0,0,0,0,0,0,0,0,0,0,0,1,0,0,0,0,0,-0.04187012,-1.050537,-0.01330566,0,0,0,0,0,0
0.836666,-0.2244794,-1,-1,-0.07454614,0,0,0,0,0,0,0,0,0,0,0,1,0,0,0,0,0,-0.01501465,-0.9643555,-0.1134033,0,0,0,0,0,0
0.8399993,-0.1374799,-1,-1,-0.07454614,0,0,0,0,0,0,0,0,0,0,0,1,0,0,0,0,0,0.08703613,-0.9707031,-0.2005615,0,0,0,0,0,0
0.8433326,-0.05099206,-1,-1,-0.06669273,0,0,0,0,0,0,0,0,0,0,0,1,0,0,0,0,0,0.07373047,-1.019043,-0.2324219,0,0,0,0,0,0
0.846666,0.04314433,-1,-1,-0.05884144,0,0,0,0,0,0,0,0,0,0,0,1,0,0,-0.04697848,-0.01674233,0.002498855,0.01611328,-0.989624,-0.2452393,0,0,0,0,0,0
0.8499993,0.1296006,-1,-1,-0.05099206,0,0,0,0,0,0,0,0,0,0,0,1,0,0,-0.03298713,-0.01614755,0.008535132,-0.02868652,-0.96875,-0.2590332,0,0,0,0,0,0
0.8533326,0.2165419,-1,-1,-0.05099206,0,0,0,0,0,0,0,0,0,0,0,1,0,0,-0.02124027,-0.01474325,0.01499313,-0.04638672,-0.9569092,-0.2441406,0,0,0,0,0,0
0.856666,0.3122526,-1,-1,-0.05099206,0,0,0,0,0,0,0,0,0,0,0,1,0,0,-0.01274416,-0.01074508,0.0189913,-0.03991699,-0.9603271,-0.2207031,0,0,0,0,0,0
0.8599993,0.3122526,-1,-1,-0.05099206,0,0,0,0,0,0,0,0,0,0,0,1,0,0,0,0,0,-0.03991699,-0.9603271,-0.2207031,0,0,0,0,0,0
0.8633326,0.4009901,-1,-1,-0.05099206,0,0,0,0,0,0,0,0,0,0,0,1,0,0,0,0,0,-0.0222168,-0.9799805,-0.2250977,0,0,0,0,0,0
0.866666,0.4825947,-1,-1,-0.05099206,0,0,0,0,0,0,0,0,0,0,0,1,0,0,0,0,0,-0.001342773,-0.9996338,-0.2338867,0,0,0,0,0,0
0.8699993,0.5563178,-1,-1,-0.05884144,0,0,0,0,0,0,0,0,0,0,0,1,0,0,0,0,0,0.005004883,-0.9857178,-0.2420654,0,0,0,0,0,0
0.8733326,0.6202084,-0.9723267,-1,-0.09026043,0,0,0,0,0,0,0,0,0,0,0,1,0,0,0,0,0,-0.0002441406,-0.9799805,-0.227417,0,0,0,0,0,0
0.8766659,0.6839312,-0.923907,-1,-0.1296006,0,0,0,0,0,0,0,0,0,0,0,1,0,0,0,0,0,0.008178711,-0.9802246,-0.2327881,0,0,0,0,0,0
0.8799993,0.7396386,-0.8755721,-1,-0.1690417,0,0,0,0,0,0,0,0,0,0,0,1,0,0,0,0,0,0.009399414,-0.9876709,-0.2468262,0,0,0,0,0,0
0.8833326,0.7786492,-0.826566,-1,-0.2165419,0,0,0,0,0,0,0,0,0,0,0,1,0,0,0,0,0,0.0004882813,-0.9698486,-0.2426758,0,0,0,0,0,0
0.8866659,0.8179268,-0.778028,-1,-0.2802319,0,0,0,0,0,0,0,0,0,0,0,1,0,0,0,0,0,-0.008422852,-0.9532471,-0.2227783,0,0,0,0,0,0
0.8899993,0.8656361,-0.7220283,-1,-0.3524597,0,0,0,0,0,0,0,0,0,0,0,1,0,0,0,0,0,-0.001831055,-0.9584961,-0.2227783,0,0,0,0,0,0
0.8933326,0.8957555,-0.6568874,-1,-0.4167845,0,0,0,0,0,0,0,0,0,0,0,1,0,0,0,0,0,0.01513672,-0.9790039,-0.2376709,0,0,0,0,0,0
0.8966659,0.9186182,-0.6084355,-0.954171,-0.4790651,0,0,0,0,0,0,0,0,0,0,0,1,0,0,0.03598645,-0.003748589,0.08071961,0.03918457,-1.014648,-0.2391357,0,0,0,0,0,0
0.8999993,0.9412041,-0.5520143,-0.8956146,-0.5326343,0,0,0,0,0,0,0,0,0,0,0,1,0,0,0.03712953,-0.001153091,0.07794895,0.01806641,-1.022095,-0.225708,0,0,0,0,0,0
0.9033326,0.9736622,-0.5047147,-0.837459,-0.5779647,0,0,0,0,0,0,0,0,0,0,0,1,0,0,0.04298032,0.003248512,0.08696017,-0.01989746,-1.036011,-0.1842041,0,0,0,0,0,0
0.9066659,0.9736622,-0.5047147,-0.837459,-0.5779647,0,0,0,0,0,0,0,0,0,0,0,1,0,0,0,0,0,-0.01989746,-1.036011,-0.1842041,0,0,0,0,0,0
0.9099993,0.9880918,-0.4484112,-0.762886,-0.6220455,0,0,0,0,0,0,0,0,0,0,0,1,0,0,0,0,0,-0.04846191,-1.022705,-0.1390381,0,0,0,0,0,0
0.9133326,1,-0.3924417,-0.7146466,-0.6599742,0,0,0,0,0,0,0,0,0,0,0,1,0,0,0,0,0,-0.05065918,-0.9812012,-0.168335,0,0,0,0,0,0
0.9166659,1,-0.3444016,-0.6592656,-0.7060775,0,0,0,0,0,0,0,0,0,0,0,1,0,0,0,0,0,-0.04394531,-0.9515381,-0.2044678,0,0,0,0,0,0
0.9199992,1,-0.2802319,-0.5962548,-0.7521384,0,0,0,0,0,0,0,0,0,0,0,1,0,0,0,0,0,-0.02954102,-0.9342041,-0.2354736,0,0,0,0,0,0
0.9233326,1,-0.2244794,-0.5498476,-0.7916245,0,0,0,0,0,0,0,0,0,0,0,1,0,0,0,0,0,-0.00769043,-0.9389648,-0.2779541,0,0,0,0,0,0
0.9266659,1,-0.1769445,-0.4880036,-0.8393661,0,0,0,0,0,0,0,0,0,0,0,1,0,0,0,0,0,0.001953125,-0.9489746,-0.302002,0,0,0,0,0,0
0.9299992,1,-0.1296006,-0.4351383,-0.8977178,0,0,0,0,0,0,0,0,0,0,0,1,0,0,0,0,0,-0.01660156,-0.9525146,-0.2924805,0,0,0,0,0,0
0.9333326,1,-0.08240198,-0.3744939,-0.9658001,0,0,0,0,0,0,0,0,0,0,0,1,0,0,0,0,0,-0.008178711,-0.9960938,-0.263916,0,0,0,0,0,0
0.9366659,1,-0.02745281,-0.3122526,-1,0,0,0,0,0,0,0,0,0,0,0,0,0,0,0.1759338,0.01574407,0.07971999,0.04174805,-1.022949,-0.31604,0,0,0,0,0,0
0.9399992,1,0.02745281,-0.2244794,-1,0,0,0,0,0,0,0,0,0,0,0,0,0,0,0.1584626,0.01614612,0.08073061,-0.02331543,-1.058716,-0.1258545,0,0,0,0,0,0
0.9433326,1,0.08240198,-0.1374799,-1,0,0,0,0,0,0,0,0,0,0,0,0,0,0,0.1516805,0.02223982,0.08895926,-0.04821777,-1.043091,-0.1516113,0,0,0,0,0,0
0.9466659,1,0.1374799,-0.05884144,-1,0,0,0,0,0,0,0,0,0,0,0,0,0,0,0.1271918,0.02448878,0.08770983,-0.08886719,-1.042725,-0.1478271,0,0,0,0,0,0
0.9499992,1,0.1374799,-0.05884144,-1,0,0,0,0,0,0,0,0,0,0,0,0,0,0,0,0,0,-0.08886719,-1.042725,-0.1478271,0,0,0,0,0,0
0.9533325,1,0.2006854,0.035298,-1,0,0,0,0,0,0,0,0,0,0,0,0,0,0,0,0,0,-0.1103516,-1.037354,-0.1508789,0,0,0,0,0,0
0.9566659,1,0.2562958,0.1217254,-1,0,0,0,0,0,0,0,0,0,0,0,0,0,0,0,0,0,-0.1046143,-1.072632,-0.1992188,0,0,0,0,0,0
0.9599992,1,0.3122526,0.2006854,-1,0,0,0,0,0,0,0,0,0,0,0,0,0,0,0,0,0,-0.1448975,-1.005249,-0.1778564,0,0,0,0,0,0
0.9633325,1,0.3686016,0.2962267,-1,0,0,0,0,0,0,0,0,0,0,0,0,0,0,0,0,0,-0.1536865,-0.9471436,-0.1090088,0,0,0,0,0,0
0.9666659,1,0.4253754,0.3928797,-1,0,0,0,0,0,0,0,0,0,0,0,0,0,0,0,0,0,-0.1422119,-0.9664307,-0.07922363,0,0,0,0,0,0
0.9699992,1,0.4821076,0.4743927,-1,0,0,0,0,0,0,0,0,0,0,0,0,0,0,0,0,0,-0.1252441,-1.010132,-0.1094971,0,0,0,0,0,0
0.9733325,0.9852398,0.5464691,0.563032,-0.9863042,0,0,0,0,0,0,0,0,0,0,0,0,0,0,0,0,0,-0.1281738,-1.032715,-0.1514893,0,0,0,0,0,0
0.9766659,0.9534637,0.6023977,0.6352481,-0.9468793,0,0,0,0,0,0,0,0,0,0,0,0,0,0,0,0,0,-0.1343994,-1.01123,-0.1813965,0,0,0,0,0,0
0.9799992,0.9303717,0.6508609,0.6996371,-0.9075292,0,0,0,0,0,0,0,0,0,0,0,0,0,0,0,0,0,-0.1544189,-0.9656982,-0.1838379,0,0,0,0,0,0
0.9833325,0.8987648,0.6990393,0.7475448,-0.8674718,0,0,0,0,0,0,0,0,0,0,0,0,0,0,0.03113895,0.002767907,0.007150426,-0.1660156,-0.9364014,-0.1651611,0,0,0,0,0,0
0.9866658,0.8668616,0.7390295,0.7872236,-0.8271842,0,0,0,0,0,0,0,0,0,0,0,0,0,0,0.03998169,0.0009995422,-0.004248055,-0.1208496,-0.9666748,-0.1580811,0,0,0,0,0,0
0.9899992,0.8668616,0.7390295,0.7872236,-0.8271842,0,0,0,0,0,0,0,0,0,0,0,0,0,0,0,0,0,-0.1208496,-0.9666748,-0.1580811,0,0,0,0,0,0
0.9933325,0.8345971,0.7707045,0.8185484,-0.7866051,0,0,0,0,0,0,0,0,0,0,0,0,0,0,0,0,0,-0.08544922,-1.035278,-0.1260986,0,0,0,0,0,0
0.9966658,0.810544,0.7945727,0.8507007,-0.7548471,0,0,0,0,0,0,0,0,0,0,0,0,0,0,0,0,0,-0.05432129,-1.062744,-0.1586914,0,0,0,0,0,0
0.9999992,0.7951917,0.8191673,0.8818683,-0.7062927,0,0,0,0,0,0,0,0,0,0,0,0,0,0,0,0,0,-0.0925293,-1.050171,-0.1676025,0,0,0,0,0,0
1.003332,0.771321,0.8432577,0.9045442,-0.657488,0,0,0,0,0,0,0,0,0,0,0,0,0,0,0,0,0,-0.1259766,-1.023926,-0.1661377,0,0,0,0,0,0
1.006666,0.7560699,0.8680802,0.9274606,-0.6090192,0,0,0,0,0,0,0,0,0,0,0,0,0,0,0,0,0,-0.1351318,-1.034546,-0.1693115,0,0,0,0,0,0
1.009999,0.731741,0.8836871,0.9584652,-0.5448537,0,0,0,0,0,0,0,0,0,0,0,0,0,0,0,0,0,-0.1549072,-1.06311,-0.1553955,0,0,0,0,0,0
1.013332,0.7075,0.8993645,0.9805801,-0.4724252,0,0,0,0,0,0,0,0,0,0,0,0,0,0,0,0,0,-0.1627197,-1.090698,-0.1348877,0,0,0,0,0,0
1.016666,0.691781,0.91571,1,-0.3928797,0,0,0,0,0,0,0,0,0,0,0,0,0,0,0,0,0,-0.1668701,-1.080688,-0.1159668,0,0,0,0,0,0
1.019999,0.6760875,0.9321206,1,-0.2962267,0,0,0,0,0,0,0,0,0,0,0,0,0,0,0,0,0,-0.1710205,-1.064697,-0.1040039,0,0,0,0,0,0
1.023332,0.6514414,0.9391946,1,-0.2006854,0,0,0,0,0,0,0,0,0,0,0,0,0,0,0,0,0,-0.1580811,-1.034058,-0.1015625,0,0,0,0,0,0
1.026666,0.6358177,0.9557259,1,-0.1217254,0,0,0,0,0,0,0,0,0,0,0,0,0,0,0,0,0,-0.1374512,-1.006592,-0.1088867,0,0,0,0,0,0
1.029999,0.6112997,0.9628969,1,-0.04314433,0,0,0,0,0,0,0,0,0,0,0,0,0,0,0,0,0,-0.09765625,-0.9921875,-0.119751,0,0,0,0,0,0
1.033332,0.5951821,0.9706661,1,0.035298,0,0,0,0,0,0,0,0,0,0,0,0,0,0,-0.07035096,-0.01314756,-0.07311887,-0.06066895,-0.9981689,-0.1507568,0,0,0,0,0,0
1.036666,0.5713281,0.9868394,1,0.113854,0,0,0,0,0,0,0,0,0,0,0,1,0,0,-0.08597463,-0.01474565,-0.08597463,-0.04675293,-0.9909668,-0.1679688,0,0,0,0,0,0
1.039999,0.5309846,1,1,0.2562958,0,0,0,0,0,0,0,0,0,0,0,1,0,0,0,0,0,-0.04272461,-0.9450684,-0.2124023,0,0,0,0,0,0
1.043332,0.4985325,1,1,0.336352,0,0,0,0,0,0,0,0,0,0,0,1,0,0,0,0,0,-0.04406738,-0.9395752,-0.2039795,0,0,0,0,0,0
1.046666,0.4743927,1,1,0.4091095,0,0,0,0,0,0,0,0,0,0,0,1,0,0,0,0,0,-0.04785156,-0.9379883,-0.1929932,0,0,0,0,0,0
1.049999,0.433522,1,1,0.4825947,0,0,0,0,0,0,0,0,0,0,0,1,0,0,0,0,0,-0.05322266,-0.9415283,-0.1853027,0,0,0,0,0,0
1.053332,0.4091095,1,0.9857708,0.5547456,0,0,0,0,0,0,0,0,0,0,0,1,0,0,0,0,0,-0.05456543,-0.9362793,-0.177124,0,0,0,0,0,0
1.056666,0.3686016,1,0.9551592,0.6274477,0,0,0,0,0,0,0,0,0,0,0,1,0,0,0,0,0,-0.05810547,-0.918457,-0.1713867,0,0,0,0,0,0
1.059999,0.3202776,1,0.9075292,0.6996371,0,0,0,0,0,0,0,0,0,0,0,1,0,0,0,0,0,-0.0657959,-0.8914795,-0.1641846,0,0,0,0,0,0
1.063332,0.2802319,1,0.8606049,0.772543,0,0,0,0,0,0,0,0,0,0,0,1,0,0,0,0,0,-0.06347656,-0.8737793,-0.1820068,0,0,0,0,0,0
1.066666,0.2165419,1,0.8210066,0.8210066,0,0,0,0,0,0,0,0,0,0,0,1,0,0,0,0,0,-0.0390625,-0.8734131,-0.2036133,0,0,0,0,0,0
1.069999,0.1611441,1,0.7731484,0.8692912,0,0,0,0,0,0,0,0,0,0,0,1,0,0,0.003248512,0.01924119,-0.1254425,-0.01794434,-0.8800049,-0.2209473,0,0,0,0,0,0
1.073332,0.09812176,1,0.7250457,0.9093114,0,0,0,0,0,0,0,0,0,0,0,1,0,0,0.01924119,0.0224897,-0.1229437,-0.0003662109,-0.8972168,-0.2114258,0,0,0,0,0,0
1.076666,0.035298,1,0.6845161,0.9327032,0,0,0,0,0,0,0,0,0,0,0,1,0,0,0.03091102,0.0256054,-0.109342,0.005249023,-0.8907471,-0.1708984,0,0,0,0,0,0
1.079999,0.035298,1,0.6845161,0.9327032,0,0,0,0,0,0,0,0,0,0,0,1,0,0,0,0,0,0.005249023,-0.8907471,-0.1708984,0,0,0,0,0,0
1.083332,-0.02745281,1,0.6363822,0.9645792,0,0,0,0,0,0,0,0,0,0,0,1,0,0,0,0,0,0.01477051,-0.8837891,-0.1569824,0,0,0,0,0,0
1.086666,-0.09812176,1,0.6040648,0.980105,0,0,0,0,0,0,0,0,0,0,0,1,0,0,0,0,0,0.01135254,-0.8710938,-0.1815186,0,0,0,0,0,0
1.089999,-0.1532514,1,0.5801693,0.9962907,0,0,0,0,0,0,0,0,0,0,0,1,0,0,0,0,0,0.01489258,-0.9012451,-0.175415,0,0,0,0,0,0
1.093332,-0.2244794,1,0.5557991,1,0,0,0,0,0,0,0,0,0,0,0,1,0,0,0,0,0,0.01745605,-0.9060059,-0.1904297,0,0,0,0,0,0
1.096666,-0.2722459,1,0.5397605,1,0,0,0,0,0,0,0,0,0,0,0,1,0,0,0,0,0,0.02246094,-0.8925781,-0.2147217,0,0,0,0,0,0
1.099999,-0.3283107,1,0.531496,1,0,0,0,0,0,0,0,0,0,0,0,1,0,0,0,0,0,0.02258301,-0.8868408,-0.222168,0,0,0,0,0,0
1.103332,-0.3766855,1,0.5154955,1,0,0,0,0,0,0,0,0,0,0,0,1,0,0,0,0,0,0.008911133,-0.9006348,-0.2038574,0,0,0,0,0,0
1.106666,-0.4253754,1,0.5154955,1,0,0,0,0,0,0,0,0,0,0,0,1,0,0,0,0,0,0.003295898,-0.9219971,-0.1938477,0,0,0,0,0,0
1.109999,-0.4743927,1,0.5154955,1,0,0,0,0,0,0,0,0,0,0,0,1,0,0,0,0,0,-0.004638672,-0.927002,-0.1782227,0,0,0,0,0,0
1.113332,-0.5154955,1,0.5072563,1,0,0,0,0,0,0,0,0,0,0,0,1,0,0,0.1756695,0.0692183,-0.06272127,-0.01757813,-0.9169922,-0.1612549,0,0,0,0,0,0
1.116666,-0.547518,1,0.5072563,1,0,0,0,0,0,0,0,0,0,0,0,1,0,0,0.1879139,0.07246681,-0.06122196,-0.02099609,-0.90271,-0.1494141,0,0,0,0,0,0
1.119999,-0.579634,0.9873765,0.5072563,1,0,0,0,0,0,0,0,0,0,0,0,1,0,0,0.1845434,0.06989581,-0.0544403,-0.02490234,-0.9147949,-0.1489258,0,0,0,0,0,0
1.123332,-0.6202084,0.9723267,0.5072563,1,0,0,0,0,0,0,0,0,0,0,0,1,0,0,0.2111533,0.07771441,-0.05472494,-0.01391602,-0.9432373,-0.1501465,0,0,0,0,0,0
1.126666,-0.6202084,0.9723267,0.5072563,1,0,0,0,0,0,0,0,0,0,0,0,1,0,0,0,0,0,-0.01391602,-0.9432373,-0.1501465,0,0,0,0,0,0
1.129999,-0.6525872,0.956861,0.5072563,1,0,0,0,0,0,0,0,0,0,0,0,1,0,0,0,0,0,0.001098633,-0.9833984,-0.1464844,0,0,0,0,0,0
1.133332,-0.6760875,0.9321206,0.5072563,1,0,0,0,0,0,0,0,0,0,0,0,1,0,0,0,0,0,0.02160645,-1.006226,-0.1300049,0,0,0,0,0,0
1.136666,-0.7080969,0.9081243,0.5072563,1,0,0,0,0,0,0,0,0,0,0,0,1,0,0,0,0,0,0.03881836,-1.025391,-0.1090088,0,0,0,0,0,0
1.139999,-0.731741,0.8836871,0.5072563,1,0,0,0,0,0,0,0,0,0,0,0,1,0,0,0,0,0,0.04772949,-1.04834,-0.1079102,0,0,0,0,0,0
1.143332,-0.7646044,0.8686867,0.4990265,1,0,0,0,0,0,0,0,0,0,0,0,1,0,0,0,0,0,0.05322266,-1.051392,-0.1253662,0,0,0,0,0,0
1.146666,-0.7884504,0.8444824,0.4898192,1,0,0,0,0,0,0,0,0,0,0,0,1,0,0,0,0,0,0.06616211,-1.052734,-0.1485596,0,0,0,0,0,0
1.149999,-0.8117793,0.8117793,0.4714067,0.9626203,0,0,0,0,0,0,0,0,0,0,0,0,0,0,0,0,0,0.06494141,-1.040405,-0.1561279,0,0,0,0,0,0
1.153332,-0.836441,0.7964199,0.4437934,0.9072236,0,0,0,0,0,0,0,0,0,0,0,0,0,0,0,0,0,0.06359863,-1.042603,-0.1539307,0,0,0,0,0,0
1.156666,-0.851927,0.7719339,0.4242521,0.8523965,0,0,0,0,0,0,0,0,0,0,0,0,0,0,0,0,0,0.05236816,-1.04895,-0.1437988,0,0,0,0,0,0
1.159999,-0.8680802,0.7560699,0.3940844,0.7613863,0,0,0,0,0,0,0,0,0,0,0,0,0,0,0.1711036,0.07540549,-0.01475826,0.03088379,-1.051147,-0.1206055,0,0,0,0,0,0
1.163332,-0.8836871,0.731741,0.3439862,0.6250932,0,0,0,0,0,0,0,0,0,0,0,0,0,0,0.1729208,0.08196246,-0.01499313,0.01342773,-1.044312,-0.09606934,0,0,0,0,0,0
1.166666,-0.9005606,0.7244509,0.2961017,0.4563449,0,0,0,0,0,0,0,0,0,0,0,0,0,0,0.1564284,0.08096292,-0.01249428,0.007324219,-1.058594,-0.1383057,0,0,0,0,0,0
1.169999,-0.9005606,0.7244509,0.2961017,0.4563449,0,0,0,0,0,0,0,0,0,0,0,0,0,0,0,0,0,0.007324219,-1.058594,-0.1383057,0,0,0,0,0,0
1.173332,-0.9081243,0.7080969,0.2159897,0.2646635,0,0,0,0,0,0,0,0,0,0,0,0,0,0,0,0,0,-0.006347656,-1.032959,-0.1125488,0,0,0,0,0,0
1.176666,-0.9244941,0.6923701,0.06767011,0.06137522,0,0,0,0,0,0,0,0,0,0,0,0,0,0,0,0,0,-0.04077148,-0.9847412,-0.05651855,0,0,0,0,0,0
1.179999,-0.9315377,0.6676687,0,0,0,0,0,0,0,0,0,0,0,0,0,0,0,0,0,0,0,0.01708984,-1.073853,0.01623535,0,0,0,0,0,0
1.183332,-0.9391946,0.6514414,0,0,0,0,0,0,0,0,0,0,0,0,0,0,0,0,0,0,0,0.003295898,-1.05835,-0.05737305,0,0,0,0,0,0
1.186666,-0.9474515,0.6436275,0,0,0,0,0,0,0,0,0,0,0,0,0,0,0,0,0,0,0,-0.007568359,-1.012573,-0.06738281,0,0,0,0,0,0
1.189999,-0.9551592,0.6274477,0,0,0,0,0,0,0,0,0,0,0,0,0,0,0,0,0,0,0,-0.03222656,-0.9625244,-0.1253662,0,0,0,0,0,0
1.193332,-0.9634567,0.6196507,0,0,0,0,0,0,0,0,0,0,0,0,0,0,0,0,0,0,0,-0.03686523,-0.9520264,-0.1656494,0,0,0,0,0,0
1.196666,-0.9712184,0.6035143,0,0,0,0,0,0,0,0,0,0,0,0,0,0,0,0,0,0,0,-0.05505371,-0.9456787,-0.1772461,0,0,0,0,0,0
1.199999,-0.9790122,0.5874074,0,0,0,0,0,0,0,0,0,0,0,0,0,0,0,0,0.1426847,0.06971806,-0.0242389,-0.07922363,-0.9459229,-0.1612549,0,0,0,0,0,0
1.203332,-0.9868394,0.5713281,0,0,0,0,0,0,0,0,0,0,0,0,0,0,0,0,0.161676,0.06821876,-0.02398901,-0.08764648,-0.9610596,-0.1490479,0,0,0,0,0,0
1.206666,-0.9857708,0.5547456,0,0,0,0,0,0,0,0,0,0,0,0,0,0,0,0,0,0,0,-0.08886719,-0.984375,-0.1472168,0,0,0,0,0,0
1.209999,-0.9941757,0.5469962,0,0,0,0,0,0,0,0,0,0,0,0,0,0,0,0,0.1720715,0.0572034,-0.01822205,-0.09375,-1.000244,-0.1469727,0,0,0,0,0,0
1.213332,-1,0.5309846,0,0,0,0,0,0,0,0,0,0,0,0,0,0,0,0,0.1939112,0.05947276,-0.01749199,-0.09362793,-0.9992676,-0.133667,0,0,0,0,0,0
1.216666,-1,0.5227324,0,0,0,0,0,0,0,0,0,0,0,0,0,0,0,0,0.198659,0.05622425,-0.0172421,-0.0892334,-0.99646,-0.1257324,0,0,0,0,0,0
1.219999,-1,0.5144897,0,0,0,0,0,0,0,0,0,0,0,0,0,0,0,0,0.1850048,0.048904,-0.01614755,-0.07519531,-0.9957275,-0.1365967,0,0,0,0,0,0
1.223332,-1,0.5062566,0,0,0,0,0,0,0,0,0,0,0,0,0,0,0,0,0.2004082,0.04797802,-0.01849153,-0.05444336,-1.011963,-0.1341553,0,0,0,0,0,0
1.226666,-1,0.5062566,0,0,0,0,0,0,0,0,0,0,0,0,0,0,0,0,0,0,0,-0.05444336,-1.011963,-0.1341553,0,0,0,0,0,0
1.229999,-1,0.4980331,0,0,0,0,0,0,0,0,0,0,0,0,0,0,0,0,0,0,0,-0.02868652,-1.035767,-0.1083984,0,0,0,0,0,0
1.233332,-1,0.4980331,0,0,0,0,0,0,0,0,0,0,0,0,0,0,0,0,0,0,0,-0.009521484,-1.083008,-0.07958984,0,0,0,0,0,0
1.236666,-1,0.4980331,0,0,0,0,0,0,0,0,0,0,0,0,0,0,0,0,0,0,0,-0.01672363,-1.096069,-0.09619141,0,0,0,0,0,0
1.239999,-0.9821059,0.4970172,0,0,0,0,0,0,0,0,0,0,0,0,0,0,0,0,0,0,0,-0.02636719,-1.104126,-0.1293945,0,0,0,0,0,0
1.243332,-0.9636579,0.4877774,0,0,0,0,0,0,0,0,0,0,0,0,0,0,0,0,0,0,0,-0.03918457,-1.080566,-0.157959,0,0,0,0,0,0
1.246666,-0.936793,0.4861837,0,0,0,0,0,0,0,0,0,0,0,0,0,0,0,0,0,0,0,-0.05480957,-1.049072,-0.149292,0,0,0,0,0,0
1.249999,-0.8921323,0.483402,0,0,0,0,0,0,0,0,0,0,0,0,0,0,0,0,0,0,0,-0.04675293,-1.029541,-0.1219482,0,0,0,0,0,0
1.253332,-0.8476302,0.480454,0,0,0,0,0,0,0,0,0,0,0,0,0,0,0,0,0,0,0,-0.02612305,-1.034424,-0.1241455,0,0,0,0,0,0
1.256666,-0.8033084,0.4773282,0,0,0,0,0,0,0,0,0,0,0,0,0,0,0,0,0.07246681,0.01224439,-0.05722379,-0.002563477,-1.073608,-0.1130371,0,0,0,0,0,0
1.259999,-0.7423086,0.4807698,0,0,0,0,0,0,0,0,0,0,0,0,0,0,0,0,0.06372601,0.01099586,-0.05872789,-0.02355957,-1.194946,-0.07226563,0,0,0,0,0,0
1.263332,-0.6732283,0.4830508,0,0,0,0,0,0,0,0,1,0,0,0,0,0,0,0,0.0415186,0.01199426,-0.06158593,0.02246094,-0.9876709,-0.06787109,0,0,0,0,0,0
1.266666,-0.6732283,0.4830508,0,0,0,0,0,0,0,0,1,0,0,0,0,0,0,0,0,0,0,0.02246094,-0.9876709,-0.06787109,0,0,0,0,0,0
1.269999,-0.6144654,0.4938342,0,0,0,0,0,0,0,0,1,0,0,0,0,0,0,0,0,0,0,-0.0008544922,-1.061035,-0.1105957,0,0,0,0,0,0
1.273332,-0.5407016,0.5108698,0,0,0,0,0,0,0,0,1,0,0,0,0,1,0,0,0,0,0,0.015625,-1.03418,-0.1060791,0,0,0,0,0,0
1.276666,-0.4687451,0.5277996,0,0,0,0,0,0,0,0,1,0,0,0,0,1,0,0,0,0,0,0.03271484,-1.042358,-0.12854,0,0,0,0,0,0
1.279999,-0.3907211,0.5440884,0,0,0,0,0,0,0,0,1,0,0,0,0,1,0,0,0,0,0,0.03991699,-1.078613,-0.1452637,0,0,0,0,0,0
1.283332,-0.3158494,0.5699811,0,0,0,0,0,0,0,0,1,0,0,0,0,1,0,0,0,0,0,0.04577637,-1.10083,-0.1496582,0,0,0,0,0,0
1.286666,-0.2420215,0.5887985,0,0,0,0,0,0,0,0,1,0,0,0,0,1,0,0,0,0,0,0.03088379,-1.121582,-0.1165771,0,0,0,0,0,0
1.289999,-0.1627019,0.6182671,0,0,0,0,0,0,0,0,1,0,0,0,0,1,0,0,0,0,0,0.03137207,-1.113037,-0.09448242,0,0,0,0,0,0
1.293332,-0.09065999,0.6418728,0,0,0,0,0,0,0,0,1,0,0,0,0,1,0,0,0,0,0,0.05395508,-1.083496,-0.1094971,0,0,0,0,0,0
1.296666,-0.01830032,0.6771117,0,0,0,0,0,0,0,0,1,0,0,0,0,1,0,0,0,0,0,0.05688477,-1.068115,-0.123291,0,0,0,0,0,0
1.299999,0.05566948,0.7237032,0,0,0,0,0,0,0,0,1,0,0,0,0,1,0,0,0,0,0,0.05737305,-1.077881,-0.131958,0,0,0,0,0,0
1.303332,0.108838,0.7618659,0,0,0,0,0,0,0,0,1,0,0,0,0,1,0,0,0,0,0,0.05908203,-1.068237,-0.1364746,0,0,0,0,0,0
1.306666,0.1714601,0.8191984,0,0,0,0,0,0,0,0,1,0,0,0,0,1,0,0,0,0,0,0.06860352,-1.053101,-0.135376,0,0,0,0,0,0
1.309999,0.2274418,0.8673628,0,0,0,0,0,0,0,0,1,0,0,0,0,1,0,0,0,0,0,0.08300781,-1.034912,-0.1385498,0,0,0,0,0,0
1.313332,0.2769233,0.9243779,0,0,0,0,0,0,0,0,1,0,0,0,0,1,0,0,0,0,0,0.08886719,-1.008789,-0.1323242,0,0,0,0,0,0
1.316666,0.3111081,0.9805813,0,0,0,0,0,0,0,0,1,0,0,0,0,1,0,0,0,0,0,0.08569336,-0.9711914,-0.1236572,0,0,0,0,0,0
1.319999,0.3444016,1,0,0,0,0,0,0,0,0,1,0,0,0,0,1,0,0,-0.07896384,0.04073134,0.1209446,0.07373047,-0.9464111,-0.1225586,0,0,0,0,0,0
1.323332,0.3605264,1,0,0,0,0,0,0,0,0,1,0,0,0,0,1,0,0,-0.06089932,0.0355246,0.1167237,0.02404785,-0.8814697,-0.1624756,0,0,0,0,0,0
1.326666,0.3605264,1,0,0,0,0,0,0,0,0,1,0,0,0,0,1,0,0,0,0,0,0.02404785,-0.8814697,-0.1624756,0,0,0,0,0,0
1.329999,0.3686016,1,0,0,0,0,0,0,0,0,1,0,0,0,0,1,0,0,0,0,0,0.01391602,-0.8852539,-0.2155762,0,0,0,0,0,0
1.333332,0.3766855,1,0,0,0,0,0,0,0,0,1,0,0,0,0,1,0,0,0,0,0,0.0324707,-0.9017334,-0.2045898,0,0,0,0,0,0
1.336666,0.3766855,1,0,0,0,0,0,0,0,0,1,0,0,0,0,1,0,0,0,0,0,0.05273438,-0.934082,-0.1395264,0,0,0,0,0,0
1.339999,0.3766855,1,0,0,0,0,0,0,0,0,1,0,0,0,0,1,0,0,0,0,0,0.08178711,-0.9664307,-0.1125488,0,0,0,0,0,0
1.343332,0.3766855,1,0,0,0,0,0,0,0,0,1,0,0,0,0,1,0,0,0,0,0,0.1101074,-1.002686,-0.08837891,0,0,0,0,0,0
1.346666,0.3766855,1,0,0,0,0,0,0,0,0,1,0,0,0,0,1,0,0,0,0,0,0.154541,-0.9805908,-0.04296875,0,0,0,0,0,0
1.349999,0.3766855,1,0,0,0,0,0,0,0,0,1,0,0,0,0,1,0,0,0,0,0,0.1623535,-1.02356,0.01281738,0,0,0,0,0,0
1.353332,0.3766855,1,0,0,0,0,0,0,0,0,1,0,0,0,0,1,0,0,0,0,0,0.1697998,-1.053833,0.009765625,0,0,0,0,0,0
1.356665,0.3766855,1,0,0,0,0,0,0,0,0,1,0,0,0,0,1,0,0,0,0,0,0.201416,-1.060669,0.01086426,0,0,0,0,0,0
1.359999,0.3766855,1,0,0,0,0,0,0,0,0,1,0,0,0,0,1,0,0,0,0,0,0.2130127,-1.046997,0.01806641,0,0,0,0,0,0
1.363332,0.3766855,1,0,0,0,0,0,0,0,0,1,0,0,0,0,1,0,0,0.05259487,-0.03713936,0.06020728,0.1605225,-1.049316,0.004150391,0,0,0,0,0,0
1.366665,0.3766855,1,0,0,0,0,0,0,0,0,1,0,0,0,0,1,0,0,0.05047688,-0.04073134,0.05922288,0.1314697,-1.104004,0.005493164,0,0,0,0,0,0
1.369999,0.3766855,1,0,0,0,0,0,0,0,0,1,0,0,0,0,1,0,0,0,0,0,0.1314697,-1.104004,0.005493164,0,0,0,0,0,0
1.373332,0.3766855,1,0,0,0,0,0,0,0,0,1,0,0,0,0,1,0,0,0,0,0,0.1488037,-1.113037,0.005859375,0,0,0,0,0,0
1.376665,0.3766855,1,0,0,0,0,0,0,0,0,1,0,0,0,0,0,0,0,0,0,0,0.1733398,-1.119263,0.01086426,0,0,0,0,0,0
1.379999,0.3766855,1,0,0,0,0,0,0,0,0,0,0,0,0,0,0,0,0,0,0,0,0.1367188,-1.136719,0.02868652,0,0,0,0,0,0
1.383332,0.3605264,1,0,0,0,0,0,0,0,0,0,0,0,0,0,0,0,0,0,0,0,0.1303711,-1.099854,0.006591797,0,0,0,0,0,0
1.386665,0.3444016,1,0,0,0,0,0,0,0,0,0,0,0,0,0,0,0,0,0,0,0,0.1278076,-1.111084,0.01049805,0,0,0,0,0,0
1.389999,0.3202776,1,0,0,0,0,0,0,0,0,0,0,0,0,0,0,0,0,0,0,0,0.1154785,-1.248535,0.01660156,0,0,0,0,0,0
1.393332,0.2882255,1,0,0,0,0,0,0,0,0,0,0,0,0,0,0,0,0,0,0,0,0.0994873,-1.088257,-0.08813477,0,0,0,0,0,0
1.396665,0.2562958,1,0,0,0,0,0,0,0,0,0,0,0,0,0,0,0,0,0,0,0,0.02844238,-0.9781494,-0.002685547,0,0,0,0,0,0
1.399999,0.2165419,1,0,0,0,0,0,0,0,0,0,0,0,0,0,0,0,0,0,0,0,0.05358887,-0.9401855,0.003051758,0,0,0,0,0,0
1.403332,0.1690417,1,0,0,0,0,0,0,0,0,0,0,0,0,0,0,0,0,-0.1097087,-0.05722845,0.06197666,0.1109619,-0.9658203,0.04248047,0,0,0,0,0,0
1.406665,0.1217254,1,0,0,0,0,0,0,0,0,0,0,0,0,0,0,0,0,-0.1151972,-0.05097665,0.06122196,0.1585693,-1.013062,0.06494141,0,0,0,0,0,0
1.409999,0.1217254,1,0,0,0,0,0,0,0,0,0,0,0,0,0,0,0,0,0,0,0,0.1585693,-1.013062,0.06494141,0,0,0,0,0,0
1.413332,0.08240198,1,0,0,0,0,0,0,0,0,0,0,0,0,0,0,0,0,0,0,0,0.1695557,-1.064331,0.05114746,0,0,0,0,0,0
1.416665,0.05099206,1,0,0,0,0,0,0,0,0,0,0,0,0,0,0,0,0,0,0,0,0.1582031,-1.068481,0.02587891,0,0,0,0,0,0
1.419999,0.003921574,1,0,0,0,0,0,0,0,0,0,0,0,0,0,0,0,0,0,0,0,0.109375,-1.040527,0.03295898,0,0,0,0,0,0
1.423332,-0.04314433,1,0,0,0,0,0,0,0,0,0,0,0,0,0,0,0,0,0,0,0,0.03417969,-1.00415,0.07531738,0,0,0,0,0,0
1.426665,-0.09812176,1,0,0,0,0,0,0,0,0,0,0,0,0,0,0,0,0,0,0,0,-0.0189209,-0.9831543,0.1057129,0,0,0,0,0,0
1.429999,-0.1532514,1,0,0,0,0,0,0,0,0,0,0,0,0,0,0,0,0,0,0,0,-0.03649902,-0.9764404,0.1107178,0,0,0,0,0,0
1.433332,-0.2165419,1,0,0,0,0,0,0,0,0,0,0,0,0,0,0,0,0,0,0,0,-0.02392578,-0.9730225,0.1125488,0,0,0,0,0,0
1.436665,-0.2642672,1,0,0,0,0,0,0,0,0,0,0,0,0,0,0,0,0,0,0,0,-0.01062012,-0.9833984,0.1141357,0,0,0,0,0,0
1.439999,-0.3122526,1,0,0,0,0,0,0,0,0,0,0,0,0,0,0,0,0,0,0,0,0.005371094,-0.9993896,0.09851074,0,0,0,0,0,0
1.443332,-0.3605264,1,0,0,0,0,0,0,0,0,0,0,0,0,0,0,0,0,0,0,0,0.03515625,-1.011108,0.06384277,0,0,0,0,0,0
1.446665,-0.4009901,1,0,0,0,0,0,0,0,0,0,0,0,0,0,0,0,0,0,0,0,0.03991699,-1.004395,0.03918457,0,0,0,0,0,0
1.449999,-0.433522,1,0,0,0,0,0,0,0,0,0,0,0,0,0,0,0,0,-0.0899588,-0.05447505,0.1554288,0.01269531,-0.982666,0.03466797,0,0,0,0,0,0
1.453332,-0.4662001,1,0,0,0,0,0,0,0,0,0,0,0,0,0,0,0,0,-0.08721006,-0.06022242,0.1526801,-0.01989746,-0.9771729,0.0213623,0,0,0,0,0,0
1.456665,-0.4662001,1,0,0,0,0,0,0,0,0,0,0,0,0,0,0,0,0,0,0,0,-0.01989746,-0.9771729,0.0213623,0,0,0,0,0,0
1.459999,-0.4990265,1,0,0,0,0,0,0,0,0,0,0,0,0,0,0,0,0,0,0,0,-0.02563477,-1.006958,0.0008544922,0,0,0,0,0,0
1.463332,-0.5309846,1,0,0,0,0,0,0,0,0,0,0,0,0,0,0,0,0,0,0,0,0.002319336,-1.058228,0.006103516,0,0,0,0,0,0
1.466665,-0.5635635,0.9952292,0,0,0,0,0,0,0,0,0,0,0,0,0,0,0,0,0,0,0,0.06018066,-1.204224,0.09875488,0,0,0,0,0,0
1.469999,-0.5874074,0.9790122,0,0,0,0,0,0,0,0,0,0,0,0,0,0,0,0,0,0,0,0.1424561,-1.271118,0.1499023,0,0,0,0,0,0
1.473332,-0.6112997,0.9628969,0,0,0,0,0,0,0,0,0,0,0,0,0,0,0,0,0,0,0,0.1119385,-1.158691,0.0682373,0,0,0,0,0,0
1.476665,-0.6358177,0.9557259,0,0,0,0,0,0,0,0,0,0,0,0,0,0,0,0,0,0,0,0.0390625,-1.067017,-0.01245117,0,0,0,0,0,0
1.479999,-0.6514414,0.9391946,0,0,0,0,0,0,0,0,0,0,0,0,0,0,0,0,0,0,0,-0.001586914,-0.8804932,-0.09094238,0,0,0,0,0,0
1.483332,-0.6670833,0.922732,0,0,0,0,0,0,0,0,0,0,0,0,0,0,0,0,0,0,0,-0.02270508,-0.7757568,-0.1638184,0,0,0,0,0,0
1.486665,-0.6911871,0.9069334,0,0,0,0,0,0,0,0,0,0,0,0,0,0,0,0,0,0,0,-0.04345703,-0.8295898,-0.1765137,0,0,0,0,0,0
1.489999,-0.7068986,0.8906124,0,0,0,0,0,0,0,0,0,0,0,0,0,1,0,0,-0.2049062,-0.1126984,0.09395697,-0.09033203,-0.9023438,-0.1225586,0,0,0,0,0,0
1.493332,-0.7396386,0.8755721,0,0,0,0,0,0,0,0,0,0,0,0,0,1,0,0,-0.1809171,-0.1024531,0.0899588,-0.1245117,-0.8654785,-0.08544922,0,0,0,0,0,0
1.496665,-0.7554604,0.8593862,0,0,0,0,0,0,0,0,0,0,0,0,0,1,0,0,-0.148083,-0.0858051,0.07565612,-0.1333008,-0.8178711,-0.07775879,0,0,0,0,0,0
1.499999,-0.7786492,0.826566,-0.02234257,0.001558784,0,0,0,0,0,0,0,0,0,0,0,1,0,0,-0.1444338,-0.08721006,0.06946818,-0.1112061,-0.7982178,-0.09069824,0,0,0,0,0,0
1.503332,-0.7786492,0.826566,-0.02234257,0.001558784,0,0,0,0,0,0,0,0,0,0,0,1,0,0,0,0,0,-0.1112061,-0.7982178,-0.09069824,0,0,0,0,0,0
1.506665,-0.8025521,0.8025521,-0.08674909,0.004565742,0,0,0,0,0,0,0,0,0,0,0,1,0,0,0,0,0,-0.08447266,-0.7963867,-0.09960938,0,0,0,0,0,0
1.509999,-0.826566,0.7786492,-0.1420351,0.006175438,0,0,0,0,0,0,0,0,0,0,0,1,0,0,0,0,0,-0.06030273,-0.8026123,-0.1019287,0,0,0,0,0,0
1.513332,-0.8507007,0.7548471,-0.1973528,0.007309361,0,0,0,0,0,0,0,0,0,0,0,1,0,0,0,0,0,-0.05969238,-0.8151855,-0.09875488,0,0,0,0,0,0
1.516665,-0.8662497,0.7305239,-0.2525952,0,0,0,0,0,0,0,0,0,0,0,0,1,0,0,0,0,0,-0.08874512,-0.8242188,0.005615234,0,0,0,0,0,0
1.519999,-0.8824759,0.7147655,-0.2987396,-0.002900384,0,0,0,0,0,0,0,0,0,0,0,1,0,0,0,0,0,-0.08666992,-0.7877197,0.002441406,0,0,0,0,0,0
1.523332,-0.8981643,0.6905887,-0.3448743,-0.003051985,0,0,0,0,0,0,0,0,0,0,0,1,0,0,0,0,0,-0.09118652,-0.7717285,-0.07250977,0,0,0,0,0,0
1.526665,-0.9139333,0.6664929,-0.3910559,-0.009537949,0,0,0,0,0,0,0,0,0,0,0,1,0,0,0,0,0,-0.08972168,-0.8308105,-0.1246338,0,0,0,0,0,0
1.529999,-0.9297888,0.6424721,-0.4280408,-0.01633743,0,0,0,0,0,0,0,0,0,0,0,1,0,0,0,0,0,-0.07446289,-0.8636475,-0.1519775,0,0,0,0,0,0
1.533332,-0.9374622,0.6263045,-0.4650446,-0.02341951,0,0,0,0,0,0,0,0,0,0,0,1,0,0,0,0,0,-0.07653809,-0.8503418,-0.177124,0,0,0,0,0,0
1.536665,-0.9451655,0.6101702,-0.4836242,-0.03043788,0,0,0,0,0,0,0,0,0,0,0,1,0,0,-0.05722379,-0.1414352,-0.0009995422,-0.1143799,-0.8303223,-0.1934814,0,0,0,0,0,0
1.539999,-0.9529006,0.5940678,-0.5114363,-0.03775704,0,0,0,0,0,0,0,0,0,0,0,1,0,0,-0.03806207,-0.1349474,-0.006459019,-0.1607666,-0.8145752,-0.1873779,0,0,0,0,0,0
1.543332,-0.9606686,0.5779957,-0.5300454,-0.04503654,0,0,0,0,0,0,0,0,0,0,0,1,0,0,-0.02273958,-0.1461831,-0.01249428,-0.1923828,-0.8155518,-0.18396,0,0,0,0,0,0
1.546665,-0.9606686,0.5779957,-0.5300454,-0.04503654,0,0,0,0,0,0,0,0,0,0,0,1,0,0,0,0,0,-0.1923828,-0.8155518,-0.18396,0,0,0,0,0,0
1.549999,-0.9684711,0.5619524,-0.5304911,-0.05894346,0,0,0,0,0,0,0,0,0,0,0,1,0,0,0,0,0,-0.1965332,-0.822876,-0.2009277,0,0,0,0,0,0
1.553332,-0.9841844,0.5299455,-0.4964027,-0.1061275,0,0,0,0,0,0,0,0,0,0,0,1,0,0,0.03123569,-0.1384366,-0.02898672,-0.1727295,-0.887085,-0.1859131,0,0,0,0,0,0
1.556665,-0.9910758,0.497528,-0.3902852,-0.1257944,0,0,0,0,0,0,0,0,0,0,0,1,0,0,0,0,0,-0.1964111,-0.9796143,-0.1534424,0,0,0,0,0,0
1.559999,-1,0.481615,-0.313491,-0.1369621,0,0,0,0,0,0,0,0,0,0,0,1,0,0,0,0,0,-0.2058105,-1.011963,-0.168335,0,0,0,0,0,0
1.563332,-0.9980689,0.4652353,-0.2589892,-0.1542295,0,0,0,0,0,0,0,0,0,0,0,1,0,0,0,0,0,-0.2301025,-1.019409,-0.1604004,0,0,0,0,0,0
1.566665,-1,0.4575411,-0.182287,-0.1505849,0,0,0,0,0,0,0,0,0,0,0,1,0,0,0,0,0,-0.2630615,-1.036377,-0.1641846,0,0,0,0,0,0
1.569999,-1,0.4493711,-0.1155518,-0.1438502,0,0,0,0,0,0,0,0,0,0,0,1,0,0,0,0,0,-0.279541,-1.063354,-0.184082,0,0,0,0,0,0
1.573332,-1,0.4416777,-0.07036556,-0.1343342,0,0,0,0,0,0,0,0,0,0,0,1,0,0,0.01337822,-0.1056418,-0.04428651,-0.298584,-1.074219,-0.21875,0,0,0,0,0,0
1.576665,-1,0.433522,-0.03670416,-0.1217032,0,0,0,0,0,0,0,0,0,0,0,1,0,0,0.0004998525,-0.1142163,-0.05823282,-0.3140869,-1.082886,-0.2233887,0,0,0,0,0,0
1.579999,-1,0.433522,-0.01395786,-0.1335966,0,0,0,0,0,0,0,0,0,0,0,1,0,0,-0.009745537,-0.1119487,-0.06896842,-0.319458,-1.067871,-0.2357178,0,0,0,0,0,0
1.583332,-1,0.4253754,0.01448388,-0.1427697,0,0,0,0,0,0,0,0,0,0,0,1,0,0,-0.01406895,-0.09894394,-0.07334306,-0.3242188,-1.067993,-0.2172852,0,0,0,0,0,0
1.586665,-1,0.4253754,0.01448388,-0.1427697,0,0,0,0,0,0,0,0,0,0,0,1,0,0,0,0,0,-0.3242188,-1.067993,-0.2172852,0,0,0,0,0,0
1.589999,-1,0.4172379,0.03733934,-0.1559467,0,0,0,0,0,0,0,0,0,0,0,1,0,0,0,0,0,-0.3209229,-1.037231,-0.2556152,0,0,0,0,0,0
1.593332,-1,0.4172379,0.05953536,-0.1786061,0,0,0,0,0,0,0,0,0,0,0,1,0,0,0,0,0,-0.3162842,-1.033325,-0.2966309,0,0,0,0,0,0
1.596665,-1,0.4172379,0.09427213,-0.1961879,0,0,0,0,0,0,0,0,0,0,0,1,0,0,0,0,0,-0.2895508,-1.071045,-0.3126221,0,0,0,0,0,0
1.599999,-1,0.4091095,0.1363528,-0.230965,0,0,0,0,0,0,0,0,0,0,0,1,0,0,0,0,0,-0.274292,-1.079712,-0.3305664,0,0,0,0,0,0
1.603332,-1,0.4009901,0.1855774,-0.2503822,0,0,0,0,0,0,0,0,0,0,0,1,0,0,0,0,0,-0.265625,-1.080444,-0.3447266,0,0,0,0,0,0
1.606665,-1,0.4009901,0.2563719,-0.2880227,0,0,0,0,0,0,0,0,0,0,0,1,0,0,0,0,0,-0.262207,-1.062622,-0.3419189,0,0,0,0,0,0
1.609999,-1,0.4009901,0.3294181,-0.3161083,0,0,0,0,0,0,0,0,0,0,0,1,0,0,0,0,0,-0.2613525,-1.048828,-0.3144531,0,0,0,0,0,0
1.613332,-1,0.4009901,0.4300014,-0.3460987,0,0,0,0,0,0,0,0,0,0,0,0,0,0,0,0,0,-0.2628174,-1.04834,-0.3026123,0,0,0,0,0,0
1.616665,-1,0.4009901,0.5413541,-0.3669581,0,0,0,0,0,0,0,0,0,0,0,0,0,0,0,0,0,-0.2509766,-1.047974,-0.302124,0,0,0,0,0,0
1.619999,-1,0.4009901,0.6633363,-0.378514,0,0,0,0,0,0,0,0,0,0,0,0,0,0,-0.05997253,-0.05922288,-0.1389364,-0.2646484,-1.055298,-0.2800293,0,0,0,0,0,0
1.623332,-0.9852591,0.3996432,0.7881041,-0.3959742,0,0,0,0,0,0,0,0,0,0,0,0,0,0,-0.07611743,-0.04451717,-0.1275544,-0.2617188,-1.046143,-0.2655029,0,0,0,0,0,0
1.626665,-0.9310822,0.3967903,0.9135678,-0.4038519,0,0,0,0,0,0,0,0,0,0,0,0,0,0,-0.1067011,-0.03648329,-0.1346883,-0.239624,-1.028198,-0.2779541,0,0,0,0,0,0
1.629999,-0.9310822,0.3967903,0.9135678,-0.4038519,0,0,0,0,0,0,0,0,0,0,0,0,0,0,0,0,0,-0.239624,-1.028198,-0.2779541,0,0,0,0,0,0
1.633332,-0.8680835,0.3931679,0.9861843,-0.4158609,0,0,0,0,0,0,0,0,0,0,0,0,0,0,0,0,0,-0.2938232,-1.017456,-0.2993164,0,0,0,0,0,0
1.636665,-0.7964184,0.3885907,0.9952164,-0.4163256,0,0,0,0,0,0,0,0,0,0,0,0,0,0,0,0,0,-0.3116455,-0.9713135,-0.3276367,0,0,0,0,0,0
1.639999,-0.7163314,0.3828014,0.9952164,-0.4163256,0,0,0,0,0,0,0,0,0,0,0,0,0,0,0,0,0,-0.2358398,-0.9117432,-0.3516846,0,0,0,0,0,0
1.643332,-0.6369814,0.3762288,0.9952164,-0.4163256,0,0,0,0,0,0,0,0,0,0,0,0,0,0,0,0,0,-0.1350098,-0.8693848,-0.4194336,0,0,0,0,0,0
1.646665,-0.567258,0.3696326,1,-0.4086611,0,0,0,0,0,0,0,0,0,0,0,0,0,0,0,0,0,-0.06359863,-0.8592529,-0.4958496,0,0,0,0,0,0
1.649999,-0.4815354,0.3602599,1,-0.4005468,0,0,0,0,0,0,0,0,0,0,0,0,0,0,0,0,0,-0.03967285,-0.8718262,-0.5263672,0,0,0,0,0,0
1.653332,-0.4062097,0.3506597,1,-0.3847782,0,0,0,0,0,0,0,0,0,0,0,0,0,0,0,0,0,-0.06420898,-0.9038086,-0.5126953,0,0,0,0,0,0
1.656665,-0.3252825,0.3386962,1,-0.3524597,0,0,0,0,0,0,0,0,0,0,0,0,0,0,0,0,0,-0.1027832,-0.9465332,-0.4855957,0,0,0,0,0,0
1.659999,-0.255752,0.3269742,1,-0.3122526,0,0,0,0,0,0,0,0,0,0,0,0,0,0,0,0,0,-0.1507568,-0.9671631,-0.4440918,0,0,0,0,0,0
1.663332,-0.1901973,0.3149169,1,-0.2642672,0,0,0,0,0,0,0,0,0,0,0,0,0,0,0,0,0,-0.1959229,-0.9627686,-0.404541,0,0,0,0,0,0
1.666665,-0.1357929,0.3047796,1,-0.2006854,0,0,0,0,0,0,0,0,0,0,0,0,0,0,-0.3245371,0.03090829,-0.05282088,-0.2210693,-0.9528809,-0.3933105,0,0,0,0,0,0
1.669999,-0.09124179,0.2972717,0.9460554,-0.1206902,0,0,0,0,0,0,0,0,0,0,0,0,0,0,-0.3835743,0.04198077,-0.04772814,-0.2125244,-0.9276123,-0.392334,0,0,0,0,0,0
1.673332,-0.05564588,0.3016592,0.8616771,-0.02680773,0,0,0,0,0,0,0,0,0,0,0,0,0,0,-0.4093459,0.04523297,-0.04148438,-0.1657715,-0.904541,-0.3948975,0,0,0,0,0,0
1.676665,-0.0267314,0.3178067,0.8434417,0.04961422,0,0,0,0,0,0,0,0,0,0,0,0,0,0,-0.4367999,0.04447963,-0.03873226,-0.09008789,-0.9169922,-0.4039307,0,0,0,0,0,0
1.679999,-0.0267314,0.3178067,0.8434417,0.04961422,0,0,0,0,0,0,0,0,0,0,0,0,0,0,0,0,0,-0.09008789,-0.9169922,-0.4039307,0,0,0,0,0,0
1.683332,0,0.3448673,0.8352361,0.1029743,0,0,0,0,0,0,0,0,0,0,0,0,0,0,0,0,0,-0.02563477,-0.9344482,-0.4056396,0,0,0,0,0,0
1.686665,0.02210327,0.3820708,0.8271934,0.1410422,0,0,0,0,0,0,0,0,0,0,0,0,0,0,0,0,0,0.01391602,-0.9460449,-0.4238281,0,0,0,0,0,0
1.689999,0.03575625,0.4193232,0.8290167,0.1871973,0,0,0,0,0,0,0,0,0,0,0,0,0,0,0,0,0,-0.01818848,-0.9260254,-0.4155273,0,0,0,0,0,0
1.693332,0.05027049,0.4658399,0.8308648,0.2259033,0,0,0,0,0,0,0,0,0,0,0,0,0,0,0,0,0,-0.05102539,-0.9105225,-0.3894043,0,0,0,0,0,0
1.696665,0.06533638,0.5123748,0.8334321,0.2726898,0,0,0,0,0,0,0,0,0,0,0,0,0,0,0,0,0,-0.06237793,-0.8864746,-0.3664551,0,0,0,0,0,0
1.699998,0.0808488,0.5589112,0.8363282,0.3198859,0,0,0,0,0,0,0,0,0,0,0,0,0,0,0,0,0,-0.0579834,-0.8587646,-0.3463135,0,0,0,0,0,0
1.703332,0.08951616,0.6051292,0.8389513,0.3595506,0,0,0,0,0,0,0,0,0,0,0,0,0,0,0,0,0,-0.06518555,-0.8393555,-0.3354492,0,0,0,0,0,0
1.706665,0.09795606,0.6421565,0.8423017,0.4075654,0,0,0,0,0,0,0,0,0,0,0,0,0,0,0,0,0,-0.07714844,-0.8137207,-0.328125,0,0,0,0,0,0
1.709998,0.1138578,0.6794739,0.8363171,0.4473324,0,0,0,0,0,0,0,0,0,0,0,0,0,0,0,0,0,-0.08996582,-0.8187256,-0.3233643,0,0,0,0,0,0
1.713332,0.1374775,0.7171123,0.8210139,0.4786006,0,0,0,0,0,0,0,0,0,0,0,0,0,0,-0.6851862,0.01849153,-0.07421601,-0.1141357,-0.842041,-0.3057861,0,0,0,0,0,0
1.716665,0.1535477,0.7452681,0.7964306,0.5011685,0,0,0,0,0,0,0,0,0,0,0,0,0,0,-0.6223177,0.02398852,-0.06158593,-0.09143066,-0.831665,-0.2789307,0,0,0,0,0,0
1.719998,0.1857857,0.7924328,0.7727533,0.531996,0,0,0,0,0,0,0,0,0,0,0,0,0,0,-0.663696,0.03498398,-0.05772356,-0.05151367,-0.8345947,-0.272583,0,0,0,0,0,0
1.723332,0.1857857,0.7924328,0.7727533,0.531996,0,0,0,0,0,0,0,0,0,0,0,0,0,0,0,0,0,-0.05151367,-0.8345947,-0.272583,0,0,0,0,0,0
1.726665,0.2111305,0.8483608,0.7312439,0.5532692,0,0,0,0,0,0,0,0,0,0,0,0,0,0,0,0,0,-0.05847168,-0.8010254,-0.2775879,0,0,0,0,0,0
1.729998,0.2524653,0.904991,0.6894594,0.5662041,0,0,0,0,0,0,0,0,0,0,0,0,0,0,0,0,0,-0.03381348,-0.7689209,-0.2923584,0,0,0,0,0,0
1.733332,0.2784469,0.9608378,0.6473301,0.5707231,0,0,0,0,0,0,0,0,0,0,0,0,0,0,0,0,0,-0.01318359,-0.7585449,-0.2897949,0,0,0,0,0,0
1.736665,0.3122526,1,0.5794572,0.564308,0,0,0,0,0,0,0,0,0,0,0,0,0,0,0,0,0,-0.002807617,-0.7659912,-0.2834473,0,0,0,0,0,0
1.739998,0.336352,1,0.4869755,0.5464534,0,0,0,0,0,0,0,0,0,0,0,0,0,0,0,0,0,-0.01171875,-0.7526855,-0.269165,0,0,0,0,0,0
1.743332,0.3444016,1,0.3449996,0.4216661,0,0,0,0,0,0,0,0,0,0,0,0,0,0,0,0,0,-0.04125977,-0.690918,-0.348877,0,0,0,0,0,0
1.746665,0.3444016,1,0.1177244,0.15136,0,0,0,0,0,0,0,0,0,0,0,0,0,0,0,0,0,-0.02172852,-0.6906738,-0.3527832,0,0,0,0,0,0
1.749998,0.3524597,1,0,0,0,0,0,0,0,0,0,0,0,0,0,0,0,0,0,0,0,0.04284668,-0.8551025,-0.1568604,0,0,0,0,0,0
1.753332,0.3605264,1,0,0,0,0,0,0,0,0,0,0,0,0,0,0,0,0,0,0,0,-0.0009765625,-0.7243652,-0.3586426,0,0,0,0,0,0
1.756665,0.3605264,1,0,0,0,0,0,0,0,0,0,0,0,0,0,0,0,0,-0.2721775,0.0858051,0.0002306589,0.03649902,-0.7475586,-0.2550049,0,0,0,0,0,0
1.759998,0.3605264,1,0,0,0,0,0,0,0,0,0,0,0,0,0,0,0,0,-0.2463872,0.08396155,-0.005747368,0.0670166,-0.7067871,-0.3295898,0,0,0,0,0,0
1.763332,0.3605264,1,0,0,0,0,0,0,0,0,0,0,0,0,0,0,0,0,-0.1956604,0.07921372,-0.007246681,0.04638672,-0.7958984,-0.2027588,0,0,0,0,0,0
1.766665,0.3605264,1,0,0,0,0,0,0,0,0,0,0,0,0,0,0,0,0,0,0,0,0.04638672,-0.7958984,-0.2027588,0,0,0,0,0,0
1.769998,0.3605264,1,0,0,0,0,0,0,0,0,0,0,0,0,0,0,0,0,0,0,0,0.04956055,-0.6802979,-0.3153076,0,0,0,0,0,0
1.773332,0.3686016,1,0,0,0,0,0,0,0,0,0,0,0,0,0,0,0,0,0,0,0,-0.1037598,-0.9523926,-0.3824463,0,0,0,0,0,0
1.776665,0.3686016,1,0,0,0,0,0,0,0,0,0,0,0,0,0,0,0,0,0,0,0,-0.05004883,-1.451172,-0.3701172,0,0,0,0,0,0
1.779998,0.3686016,1,0,0,0,0,0,0,0,0,0,0,0,0,0,0,0,0,0,0,0,0.2630615,-2.146484,-0.4084473,0,0,0,0,0,0
1.783332,0.4009901,1,0,0,0,0,0,0,0,0,0,0,0,0,0,0,0,0,0,0,0,0.4095459,-3.210815,-0.3933105,0,0,0,0,0,0
1.786665,0.4163256,0.9952164,0,0,0,0,0,0,0,0,0,0,0,0,0,0,0,0,0,0,0,0.2546387,-3.641968,-0.08422852,0,0,0,0,0,0
1.789998,0.4205293,0.9235923,0,0,0,0,0,0,0,0,0,0,0,0,0,0,0,0,0,0,0,0.1038818,-3.44397,0.3618164,0,0,0,0,0,0
1.793332,0.4173152,0.8697316,0,0,0,0,0,0,0,0,0,0,0,0,0,0,0,0,0,0,0,0.05786133,-2.913086,0.6630859,0,0,0,0,0,0
1.796665,0.4092539,0.8691774,0,0,0,0,0,0,0,0,0,0,0,0,0,0,0,0,0,0,0,0.09521484,-2.448975,0.668457,0,0,0,0,0,0
1.799998,0.3706725,0.8935158,0,0,0,0,0,0,0,0,0,0,0,0,0,0,0,0,0,0,0,0.1125488,-2.0802,0.4681396,0,0,0,0,0,0
1.803332,0.3275254,0.9904684,0,0,0,0,0,0,0,0,0,0,0,0,0,0,0,0,-0.5972265,0.1399359,0.05347551,0.2141113,-1.641846,0.1717529,0,0,0,0,0,0
1.806665,0.2882255,1,0,0,0,0,0,0,0,0,0,0,0,0,0,0,0,0,-0.6719422,0.1194453,0.0899588,0.2677002,-1.203735,-0.1605225,0,0,0,0,0,0
1.809998,0.2722459,1,0,0,0,0,0,0,0,0,0,0,0,0,0,0,0,0,-0.622087,0.09941398,0.09618475,0.1920166,-0.7255859,-0.4202881,0,0,0,0,0,0
1.813332,0.2722459,1,0,0,0,0,0,0,0,0,0,0,0,0,0,0,0,0,0,0,0,0.1920166,-0.7255859,-0.4202881,0,0,0,0,0,0
1.816665,0.2722459,1,0,0,0,0,0,0,0,0,0,0,0,0,0,0,0,0,0,0,0,0.06860352,-0.5345459,-0.4949951,0,0,0,0,0,0
1.819998,0.2722459,1,0,0,0,0,0,0,0,0,0,0,0,0,0,0,0,0,0,0,0,0.04919434,-0.4117432,-0.4647217,0,0,0,0,0,0
1.823332,0.2642672,1,0,0,0,0,0,0,0,0,0,0,0,0,0,0,0,0,0,0,0,0.09521484,-0.3934326,-0.4628906,0,0,0,0,0,0
1.826665,0.2562958,1,0,0,0,0,0,0,0,0,0,0,0,0,0,0,0,0,0,0,0,0.08679199,-0.3532715,-0.4504395,0,0,0,0,0,0
1.829998,0.2403741,1,0,0,0,0,0,0,0,0,0,0,0,0,0,0,0,0,0,0,0,0.02172852,-0.3272705,-0.3962402,0,0,0,0,0,0
1.833332,0.2165419,1,0,0,0,0,0,0,0,0,0,0,0,0,0,0,0,0,0,0,0,0.005981445,-0.2275391,-0.375,0,0,0,0,0,0
1.836665,0.1927661,1,0,0,0,0,0,0,0,0,0,0,0,0,0,0,0,0,0,0,0,0.02441406,-0.1800537,-0.4365234,0,0,0,0,0,0
1.839998,0.1611441,1,0,0,0,0,0,0,0,0,0,0,0,0,0,0,0,0,0,0,0,0.04650879,-0.02307129,-0.5273438,0,0,0,0,0,0
1.843332,0.1374799,1,0,0,0,0,0,0,0,0,0,0,0,0,0,0,0,0,0,0,0,0.01965332,0.09741211,-0.5750732,0,0,0,0,0,0
1.846665,0.1059862,1,0,0,0,0,0,0,0,0,0,0,0,0,0,0,0,0,0,0,0,-0.05737305,0.0994873,-0.550415,0,0,0,0,0,0
1.849998,0.07454614,1,0,0,0,0,0,0,0,0,0,0,0,0,0,0,0,0,0,0,0,-0.08032227,0.04711914,-0.5306396,0,0,0,0,0,0
1.853332,0.05099206,1,0,0,0,0,0,0,0,0,0,0,0,0,0,0,0,0,0,0,0,-0.06591797,-0.08605957,-0.4716797,0,0,0,0,0,0
1.856665,0.01960851,1,0,0,0,0,0,0,0,0,1,0,0,0,0,0,0,0,0,0,0,-0.07958984,-0.078125,-0.416748,0,0,0,0,0,0
1.859998,-0.01176485,1,0,0,0,0,0,0,0,0,1,0,0,0,0,0,0,0,0.2029798,0.08395983,-0.01545415,-0.0378418,-0.178833,-0.3543701,0,0,0,0,0,0
1.863332,-0.035298,1,0,0,0,0,0,0,0,0,1,0,0,0,0,0,0,0,0.2333931,0.09270754,-0.005997253,0.03442383,-0.3927002,-0.3070068,0,0,0,0,0,0
1.866665,-0.035298,1,0,0,0,0,0,0,0,0,1,0,0,0,0,0,0,0,0,0,0,0.03442383,-0.3927002,-0.3070068,0,0,0,0,0,0
1.869998,-0.05884144,1,0,0,0,0,0,0,0,0,1,0,0,0,0,0,0,0,0,0,0,0.04992676,-0.4744873,-0.3168945,0,0,0,0,0,0
1.873332,-0.07454614,1,0,0,0,0,0,0,0,0,1,0,0,0,0,0,0,0,0,0,0,0.02966309,-0.53479,-0.3499756,0,0,0,0,0,0
1.876665,-0.08240198,1,0,0,0,0,0,0,0,0,1,0,0,0,0,0,0,0,0,0,0,0.05078125,-0.6590576,-0.3927002,0,0,0,0,0,0
1.879998,-0.09026043,1,0,0,0,0,0,0,0,0,1,0,0,0,0,0,0,0,0,0,0,0.1147461,-0.8858643,-0.4525146,0,0,0,0,0,0
1.883332,-0.09026043,1,0,0,0,0,0,0,0,0,1,0,0,0,0,0,0,0,0,0,0,0.1782227,-1.142944,-0.5098877,0,0,0,0,0,0
1.886665,-0.09026043,1,0,0,0,0,0,0,0,0,1,0,0,0,0,0,0,0,0,0,0,0.2071533,-1.39856,-0.4852295,0,0,0,0,0,0
1.889998,-0.09026043,1,0,0,0,0,0,0,0,0,1,0,0,0,0,0,0,0,0,0,0,0.1624756,-1.492188,-0.4002686,0,0,0,0,0,0
1.893332,-0.08240198,1,0,0,0,0,0,0,0,0,1,0,0,0,0,0,0,0,0,0,0,0.1025391,-1.436646,-0.2980957,0,0,0,0,0,0
1.896665,-0.06669273,1,0,0,0,0,0,0,0,0,1,0,0,0,0,0,0,0,0,0,0,0.03869629,-1.344849,-0.2796631,0,0,0,0,0,0
1.899998,-0.04314433,1,0,0,0,0,0,0,0,0,1,0,0,0,0,0,0,0,0,0,0,-0.1135254,-1.241211,-0.3791504,0,0,0,0,0,0
1.903332,0,1,0,0,0,0,0,0,0,0,1,0,0,0,0,0,0,0,0,0,0,-0.2541504,-1.23645,-0.5058594,0,0,0,0,0,0
1.906665,0.04314433,1,0,0,0,0,0,0,0,0,1,0,0,0,0,0,0,0,0,0,0,-0.2637939,-1.359741,-0.5268555,0,0,0,0,0,0
1.909998,0.09026043,1,0,0,0,0,0,0,0,0,1,0,0,0,0,0,0,0,0.06412317,0.08349852,0.0661991,-0.19104,-1.475464,-0.5040283,0,0,0,0,0,0
1.913332,0.1374799,1,0,0,0,0,0,0,0,0,1,0,0,0,0,0,0,0,0.0432302,0.09945446,-0.02323936,-0.1568604,-1.460449,-0.4519043,0,0,0,0,0,0
1.916665,0.1927661,1,0,0,0,0,0,0,0,0,1,0,0,0,0,0,0,0,0.01424464,0.09871283,-0.07397215,-0.1096191,-1.321289,-0.3894043,0,0,0,0,0,0
1.919998,0.1927661,1,0,0,0,0,0,0,0,0,1,0,0,0,0,0,0,0,0,0,0,-0.1096191,-1.321289,-0.3894043,0,0,0,0,0,0
1.923332,0.2324234,1,0,0,0,0,0,0,0,0,1,0,0,0,0,0,0,0,0,0,0,-0.06298828,-1.149658,-0.3874512,0,0,0,0,0,0
1.926665,0.2562958,1,0,0,0,0,0,0,0,0,1,0,0,0,0,0,0,0,0,0,0,-0.03210449,-0.9664307,-0.4534912,0,0,0,0,0,0
1.929998,0.2802319,1,0,0,0,0,0,0,0,0,1,0,0,0,0,0,0,0,0,0,0,-0.02294922,-0.770752,-0.5332031,0,0,0,0,0,0
1.933332,0.2962267,1,0,0,0,0,0,0,0,0,1,0,0,0,0,0,0,0,0,0,0,-0.01391602,-0.5841064,-0.5577393,0,0,0,0,0,0
1.936665,0.3042357,1,0,0,0,0,0,0,0,0,1,0,0,0,0,0,0,0,0,0,0,0.005859375,-0.4517822,-0.5380859,0,0,0,0,0,0
1.939998,0.3202776,1,0,0,0,0,0,0,0,0,1,0,0,0,0,0,0,0,0,0,0,0.03979492,-0.4105225,-0.5313721,0,0,0,0,0,0
1.943332,0.3283107,1,0,0,0,0,0,0,0,0,1,0,0,0,0,0,0,0,0,0,0,0.0501709,-0.4313965,-0.5341797,0,0,0,0,0,0
1.946665,0.3444016,1,0,0,0,0,0,0,0,0,1,0,0,0,0,0,0,0,0,0,0,0.0513916,-0.4952393,-0.5216064,0,0,0,0,0,0
1.949998,0.3524597,1,0,0,0,0,0,0,0,0,1,0,0,0,0,0,0,0,0.224897,0.07546544,0.02398901,0.05664063,-0.6182861,-0.5068359,0,0,0,0,0,0
1.953332,0.3686016,1,0,0,0,0,0,0,0,0,1,0,0,0,0,0,0,0,0.2581318,0.07296658,0.02348924,0.0657959,-0.7832031,-0.4885254,0,0,0,0,0,0
1.956665,0.3766855,1,0,0,0,0,0,0,0,0,1,0,0,0,0,0,0,0,0.2766233,0.07021784,0.0224897,0.05419922,-0.9592285,-0.4729004,0,0,0,0,0,0
1.959998,0.3766855,1,0,0,0,0,0,0,0,0,1,0,0,0,0,0,0,0,0,0,0,0.05419922,-0.9592285,-0.4729004,0,0,0,0,0,0
1.963332,0.3847782,1,0,0,0,0,0,0,0,0,1,0,0,0,0,0,0,0,0,0,0,0.06567383,-1.12146,-0.4385986,0,0,0,0,0,0
1.966665,0.3928797,1,0,0,0,0,0,0,0,0,1,0,0,0,0,0,0,0,0,0,0,0.08203125,-1.169189,-0.4147949,0,0,0,0,0,0
1.969998,0.4009901,1,0,0,0,0,0,0,0,0,1,0,0,0,0,0,0,0,0,0,0,0.07067871,-1.182251,-0.3322754,0,0,0,0,0,0
1.973332,0.4091095,1,0,0,0,0,0,0,0,0,1,0,0,0,0,0,0,0,0,0,0,0.05883789,-1.188843,-0.276123,0,0,0,0,0,0
1.976665,0.4091095,1,0,0,0,0,0,0,0,0,1,0,0,0,0,0,0,0,0,0,0,0.04577637,-1.176147,-0.2733154,0,0,0,0,0,0
1.979998,0.4091095,1,0,0,0,0,0,0,0,0,1,0,0,0,0,0,0,0,0,0,0,0.07067871,-1.137451,-0.2926025,0,0,0,0,0,0
1.983332,0.4091095,1,0,0,0,0,0,0,0,0,1,0,0,0,0,0,0,0,0,0,0,0.05627441,-1.066528,-0.2907715,0,0,0,0,0,0
1.986665,0.4091095,1,0,0,0,0,0,0,0,0,0,0,0,0,0,0,0,0,0,0,0,0.03759766,-0.9838867,-0.2998047,0,0,0,0,0,0
1.989998,0.4091095,1,0,0,0,0,0,0,0,0,0,0,0,0,0,0,0,0,0.122194,0.01599267,-0.001499313,0.04504395,-0.805542,-0.3577881,0,0,0,0,0,0
1.993332,0.4091095,1,0,0,0,0,0,0,0,0,0,0,0,0,0,0,0,0,0.1201733,0.009687673,-0.0006919767,-0.01135254,-1.001587,-0.2518311,0,0,0,0,0,0
1.996665,0.4091095,1,0,0,0,0,0,0,0,0,0,0,0,0,0,0,0,0,0,0,0,-0.01135254,-1.001587,-0.2518311,0,0,0,0,0,0
1.999998,0.4172379,1,0,0,0,0,0,0,0,0,0,0,0,0,0,0,0,0,0,0,0,-0.006591797,-0.9610596,-0.2247314,0,0,0,0,0,0
2.003332,0.4091095,1,0,0,0,0,0,0,0,0,0,0,0,0,0,0,0,0,0,0,0,0.006469727,-0.8989258,-0.2867432,0,0,0,0,0,0
2.006665,0.4091095,1,0,0,0,0,0,0,0,0,0,0,0,0,0,0,0,0,0,0,0,0.0135498,-0.8735352,-0.3497314,0,0,0,0,0,0
2.009998,0.4091095,1,0,0,0,0,0,0,0,0,0,0,0,0,0,0,0,0,0,0,0,0.03833008,-0.8808594,-0.3822021,0,0,0,0,0,0
2.013332,0.4091095,1,0,0,0,0,0,0,0,0,0,0,0,0,0,0,0,0,0,0,0,0.06359863,-0.9108887,-0.3657227,0,0,0,0,0,0
2.016665,0.4172379,1,0,0,0,0,0,0,0,0,0,0,0,0,0,0,0,0,0,0,0,0.06152344,-0.956665,-0.3305664,0,0,0,0,0,0
2.019998,0.4091095,1,0,0,0,0,0,0,0,0,0,0,0,0,0,0,0,0,0,0,0,0.04138184,-1.036621,-0.3001709,0,0,0,0,0,0
2.023332,0.4091095,1,0,0,0,0,0,0,0,0,0,0,0,0,0,0,0,0,0,0,0,0.02209473,-1.109131,-0.2541504,0,0,0,0,0,0
2.026665,0.4091095,1,0,0,0,0,0,0,0,0,0,0,0,0,0,0,0,0,0,0,0,0.01013184,-1.153931,-0.2225342,0,0,0,0,0,0
2.029998,0.4091095,1,0,0,0,0,0,0,0,0,0,0,0,0,0,0,0,0,0,0,0,-0.006591797,-1.167236,-0.21875,0,0,0,0,0,0
2.033332,0.4091095,1,0,0,0,0,0,0,0,0,0,0,0,0,0,0,0,0,0.0336762,-0.002306589,-0.00207593,-0.003417969,-1.147949,-0.2320557,0,0,0,0,0,0
2.036665,0.4009901,1,0,0,0,0,0,0,0,0,0,0,0,0,0,0,0,0,0.01199451,0.0007496566,-0.003498398,0.002441406,-1.119141,-0.2121582,0,0,0,0,0,0
2.039998,0.3928797,1,0,0,0,0,0,0,0,0,0,0,0,0,0,0,0,0,-0.01699222,0.005247597,-0.003998169,0.02600098,-1.132813,-0.2166748,0,0,0,0,0,0
2.043332,0.3928797,1,0,0,0,0,0,0,0,0,0,0,0,0,0,0,0,0,0,0,0,0.02600098,-1.132813,-0.2166748,0,0,0,0,0,0
2.046665,0.3847782,1,0,0,0,0,0,0,0,0,0,0,0,0,0,0,0,0,0,0,0,0.03710938,-1.098999,-0.2423096,0,0,0,0,0,0
2.049998,0.3686016,1,0,0,0,0,0,0,0,0,0,0,0,0,0,0,0,0,0,0,0,0.01660156,-1.037842,-0.2811279,0,0,0,0,0,0
2.053332,0.3524597,1,0,0,0,0,0,0,0,0,0,0,0,0,0,0,0,0,0,0,0,0.006591797,-1.009521,-0.2952881,0,0,0,0,0,0
2.056665,0.3283107,1,0,0,0,0,0,0,0,0,0,0,0,0,0,0,0,0,0,0,0,0.005615234,-1.03479,-0.2955322,0,0,0,0,0,0
2.059998,0.3042357,1,0,0,0,0,0,0,0,0,0,0,0,0,0,0,0,0,0,0,0,-0.0144043,-1.055054,-0.2923584,0,0,0,0,0,0
2.063332,0.2882255,1,0,0,0,0,0,0,0,0,0,0,0,0,0,0,0,0,0,0,0,-0.0357666,-1.054565,-0.3001709,0,0,0,0,0,0
2.066665,0.2722459,1,0,0,0,0,0,0,0,0,0,0,0,0,0,1,0,0,0,0,0,-0.04882813,-1.057251,-0.3074951,0,0,0,0,0,0
2.069998,0.2562958,1,0,0,0,0,0,0,0,0,0,0,0,0,0,1,0,0,0,0,0,-0.06445313,-1.0354,-0.3006592,0,0,0,0,0,0
2.073332,0.2403741,1,0,0,0,0,0,0,0,0,0,0,0,0,0,1,0,0,0,0,0,-0.06665039,-1.016357,-0.3057861,0,0,0,0,0,0
2.076665,0.2244794,1,0,0,0,0,0,0,0,0,0,0,0,0,0,1,0,0,-0.1806059,-0.007842403,-0.005074495,-0.05834961,-1.002686,-0.3244629,0,0,0,0,0,0
2.079998,0.2086106,1,0,0,0,0,0,0,0,0,0,0,0,0,0,1,0,0,-0.209654,-0.01024531,-0.003998169,-0.0489502,-1.004639,-0.3339844,0,0,0,0,0,0
2.083332,0.1848525,1,0,0,0,0,0,0,0,0,0,0,0,0,0,1,0,0,0,0,0,0.01757813,-0.9035645,-0.3988037,0,0,0,0,0,0
2.086665,0.1848525,1,0,0,0,0,0,0,0,0,0,0,0,0,0,1,0,0,-0.2144018,0.002748741,0.00449794,0.04077148,-0.7272949,-0.3820801,0,0,0,0,0,0
2.089998,0.1848525,1,0,0,0,0,0,0,0,0,0,0,0,0,0,1,0,0,-0.1929117,0.001249428,0,0.04956055,-0.7540283,-0.5966797,0,0,0,0,0,0
2.093332,0.1848525,1,0,0,0,0,0,0,0,0,0,0,0,0,0,1,0,0,-0.1579277,-0.001499313,0.008995879,0.004638672,-0.8135986,-0.6015625,0,0,0,0,0,0
2.096665,0.1848525,1,0,0,0,0,0,0,0,0,0,0,0,0,0,1,0,0,0,0,0,0.004638672,-0.8135986,-0.6015625,0,0,0,0,0,0
2.099998,0.1848525,1,0,0,0,0,0,0,0,0,0,0,0,0,0,1,0,0,0,0,0,0.05944824,-0.6142578,-0.7479248,0,0,0,0,0,0
2.103332,0.1848525,1,0,0,0,0,0,0,0,0,0,0,0,0,0,1,0,0,0,0,0,-0.02258301,-0.7185059,-0.6696777,0,0,0,0,0,0
2.106665,0.1848525,1,0,0,0,0,0,0,0,0,0,0,0,0,0,1,0,0,0,0,0,-0.03613281,-0.7677002,-0.4682617,0,0,0,0,0,0
2.109998,0.1848525,1,0,0,0,0,0,0,0,0,0,0,0,0,0,1,0,0,0,0,0,-0.03625488,-0.7471924,-0.4476318,0,0,0,0,0,0
2.113332,0.1848525,1,0,0,0,0,0,0,0,0,0,0,0,0,0,1,0,0,0,0,0,0.05969238,-0.75354,-0.5731201,0,0,0,0,0,0
2.116665,0.1848525,1,-0.01008673,-0.002844975,0,0,0,0,0,0,0,0,0,0,0,1,0,0,0,0,0,0.06628418,-0.8184814,-0.5858154,0,0,0,0,0,0
2.119998,0.1848525,1,-0.03807466,-0.01099935,0,0,0,0,0,0,0,0,0,0,0,1,0,0,0,0,0,0.05688477,-0.8382568,-0.5527344,0,0,0,0,0,0
2.123332,0.1848525,1,-0.04675537,-0.01293234,0,0,0,0,0,0,0,0,0,0,0,1,0,0,0,0,0,0.05102539,-0.8308105,-0.5028076,0,0,0,0,0,0
2.126665,0.1848525,1,-0.03807466,-0.01099935,0,0,0,0,0,0,0,0,0,0,0,1,0,0,0,0,0,0.02648926,-0.8389893,-0.4489746,0,0,0,0,0,0
2.129998,0.1848525,1,-0.03807466,-0.01099935,0,0,0,0,0,0,0,0,0,0,0,1,0,0,0,0,0,0.02185059,-0.864624,-0.4199219,0,0,0,0,0,0
2.133332,0.1848525,1,-0.02946557,-0.008908195,0,0,0,0,0,0,0,0,0,0,0,1,0,0,0,0,0,0.0222168,-0.9035645,-0.4106445,0,0,0,0,0,0
2.136665,0.1927661,1,0,0,0,0,0,0,0,0,0,0,0,0,0,1,0,0,0.06522544,-0.01449454,0.005248024,0.007446289,-0.9370117,-0.4080811,0,0,0,0,0,0
2.139998,0.1927661,1,0,0,0,0,0,0,0,0,0,0,0,0,0,1,0,0,0.05628077,-0.01430085,0.004382519,-0.001831055,-0.9750977,-0.3758545,0,0,0,0,0,0
2.143332,0.1927661,1,0,0,0,0,0,0,0,0,0,0,0,0,0,1,0,0,0,0,0,-0.001831055,-0.9750977,-0.3758545,0,0,0,0,0,0
2.146665,0.1927661,1,0,0,0,0,0,0,0,0,0,0,0,0,0,1,0,0,0,0,0,-0.02819824,-0.9855957,-0.3476563,0,0,0,0,0,0
2.149998,0.1927661,1,0,0,0,0,0,0,0,0,0,0,0,0,0,1,0,0,0,0,0,-0.008666992,-0.9880371,-0.3443604,0,0,0,0,0,0
2.153332,0.1927661,1,0,0,0,0,0,0,0,0,0,0,0,0,0,1,0,0,0,0,0,0.03564453,-0.9920654,-0.3475342,0,0,0,0,0,0
2.156665,0.1927661,1,0,0,0,0,0,0,0,0,0,0,0,0,0,1,0,0,0,0,0,0.04992676,-0.9771729,-0.3510742,0,0,0,0,0,0
2.159998,0.1927661,1,0,0,0,0,0,0,0,0,0,0,0,0,0,1,0,0,0,0,0,0.03955078,-0.9820557,-0.355835,0,0,0,0,0,0
2.163332,0.1927661,1,0,0,0,0,0,0,0,0,0,0,0,0,0,1,0,0,0,0,0,0.02600098,-0.9863281,-0.371582,0,0,0,0,0,0
2.166665,0.1927661,1,0,0,0,0,0,0,0,0,0,0,0,0,0,1,0,0,0,0,0,0.01708984,-0.9968262,-0.3903809,0,0,0,0,0,0
2.169998,0.1927661,1,0,0,0,0,0,0,0,0,0,0,0,0,0,1,0,0,-0.00622779,-0.009457015,0.002998566,0.02392578,-0.9873047,-0.4227295,0,0,0,0,0,0
2.173331,0.1927661,1,0,0,0,0,0,0,0,0,0,0,0,0,0,1,0,0,0,0,0,0.02258301,-0.9328613,-0.4123535,0,0,0,0,0,0
2.176665,0.1927661,1,0,0,0,0,0,0,0,0,0,0,0,0,0,1,0,0,0,0,0,0.01037598,-0.8782959,-0.4030762,0,0,0,0,0,0
2.179998,0.1690417,1,0,0,0,0,0,0,0,0,0,0,0,0,0,1,0,0,-0.00276693,-0.00092231,0.00461155,0.07836914,-0.8951416,-0.440918,0,0,0,0,0,0
2.183331,0.1374799,1,0,0,0,0,0,0,0,0,0,0,0,0,0,1,0,0,0.01249428,-0.002748741,0.001249428,0.04321289,-0.8763428,-0.3706055,0,0,0,0,0,0
2.186665,0.09026043,1,0,0,0,0,0,0,0,0,0,0,0,0,0,1,0,0,0.02398901,-0.001499313,-0.002748741,0.02062988,-0.8522949,-0.3946533,0,0,0,0,0,0
2.189998,0.09026043,1,0,0,0,0,0,0,0,0,0,0,0,0,0,1,0,0,0,0,0,0.02062988,-0.8522949,-0.3946533,0,0,0,0,0,0
2.193331,0.05099206,1,0,0,0,0,0,0,0,0,0,0,0,0,0,1,0,0,0,0,0,0.02416992,-0.864624,-0.4329834,0,0,0,0,0,0
2.196665,0.01176485,1,0,0,0,0,0,0,0,0,0,0,0,0,0,1,0,0,0,0,0,0.00390625,-0.8657227,-0.4440918,0,0,0,0,0,0
2.199998,-0.035298,1,0.02234257,0.001558784,0,0,0,0,0,0,0,0,0,0,0,1,0,0,0,0,0,-0.005126953,-0.8596191,-0.4422607,0,0,0,0,0,0
2.203331,-0.08240198,1,0.06046266,0.008298798,0,0,0,0,0,0,0,0,0,0,0,1,0,0,0,0,0,-0.0008544922,-0.8702393,-0.4382324,0,0,0,0,0,0
2.206665,-0.1296006,1,0.1159605,0.01656578,0,0,0,0,0,0,0,0,0,0,0,1,0,0,0,0,0,-0.01281738,-0.885498,-0.411499,0,0,0,0,0,0
2.209998,-0.1769445,1,0.1531763,0.02373154,0,0,0,0,0,0,0,0,0,0,0,1,0,0,0,0,0,-0.01660156,-0.9373779,-0.3886719,0,0,0,0,0,0
2.213331,-0.2244794,1,0.1994617,0.03201236,0,0,0,0,0,0,0,0,0,0,0,1,0,0,0,0,0,-0.01342773,-0.980835,-0.3840332,0,0,0,0,0,0
2.216665,-0.2642672,1,0.2645818,0.04734621,0,0,0,0,0,0,0,0,0,0,0,0,0,0,0,0,0,-0.002319336,-1.025269,-0.3840332,0,0,0,0,0,0
2.219998,-0.3042357,1,0.3211266,0.0690272,0,0,0,0,0,0,0,0,0,0,0,0,0,0,0,0,0,-0.001708984,-1.005371,-0.380249,0,0,0,0,0,0
2.223331,-0.3444016,1,0.3866362,0.09266488,0,0,0,0,0,0,0,0,0,0,0,0,0,0,0,0,0,-0.00378418,-0.9702148,-0.3891602,0,0,0,0,0,0
2.226665,-0.3686016,1,0.451414,0.1103457,0,0,0,0,0,0,0,0,0,0,0,0,0,0,0.0277373,-0.001749199,-0.003248512,-0.006103516,-0.9505615,-0.4016113,0,0,0,0,0,0
2.229998,-0.4009901,1,0.5167086,0.1352459,0,0,0,0,0,0,0,0,0,0,0,0,0,0,0.02421918,-0.001614612,-0.001845271,-0.01782227,-0.9959717,-0.3937988,0,0,0,0,0,0
2.233331,-0.4009901,1,0.5167086,0.1352459,0,0,0,0,0,0,0,0,0,0,0,0,0,0,0,0,0,-0.01782227,-0.9959717,-0.3937988,0,0,0,0,0,0
2.236665,-0.433522,1,0.582456,0.1679474,0,0,0,0,0,0,0,0,0,0,0,0,0,0,0,0,0,0.0078125,-0.9108887,-0.4210205,0,0,0,0,0,0
2.239998,-0.4662001,1,0.6657042,0.19493,0,0,0,0,0,0,0,0,0,0,0,0,0,0,0,0,0,-0.02197266,-0.9058838,-0.3557129,0,0,0,0,0,0
2.243331,-0.4908059,1,0.7407964,0.2369045,0,0,0,0,0,0,0,0,0,0,0,0,0,0,0,0,0,0.0345459,-0.9299316,-0.34729,0,0,0,0,0,0
2.246665,-0.5154955,1,0.8067001,0.2790953,0,0,0,0,0,0,0,0,0,0,0,0,0,0,0,0,0,0.0526123,-0.949707,-0.3702393,0,0,0,0,0,0
2.249998,-0.5320019,1,0.8724975,0.3218546,0,0,0,0,0,0,0,0,0,0,0,0,0,0,0,0,0,0.006958008,-0.9602051,-0.3768311,0,0,0,0,0,0
2.253331,-0.5480344,1,0.9381943,0.3650714,0,0,0,0,0,0,0,0,0,0,0,0,0,0,0,0,0,0.003417969,-0.9703369,-0.357666,0,0,0,0,0,0
2.256665,-0.5723898,1,0.9857191,0.4077473,0,0,0,0,0,0,0,0,0,0,0,0,0,0,0,0,0,-0.01782227,-0.9250488,-0.3574219,0,0,0,0,0,0
2.259998,-0.5884867,0.9968243,1,0.4167845,0,0,0,0,0,0,0,0,0,0,0,0,0,0,0,0,0,-0.04785156,-0.8751221,-0.3945313,0,0,0,0,0,0
2.263331,-0.6129544,0.9895408,1,0.4167845,0,0,0,0,0,0,0,0,0,0,0,0,0,0,0,0,0,-0.02185059,-0.9190674,-0.3563232,0,0,0,0,0,0
2.266665,-0.6285701,0.9728824,1,0.4167845,0,0,0,0,0,0,0,0,0,0,0,0,0,0,0.01949107,0.01799176,0.00674691,-0.009643555,-0.9298096,-0.3450928,0,0,0,0,0,0
2.269998,-0.6447625,0.9651414,1,0.4167845,0,0,0,0,0,0,0,0,0,0,0,0,0,0,0.01524302,0.02298947,0.002498855,-0.005004883,-1.01123,-0.3569336,0,0,0,0,0,0
2.273331,-0.6609865,0.957429,1,0.4167845,0,0,0,0,0,0,0,0,0,0,0,0,0,0,0.006459019,0.02099181,0.006459019,-0.003295898,-1.011719,-0.3327637,0,0,0,0,0,0
2.276665,-0.6609865,0.957429,1,0.4167845,0,0,0,0,0,0,0,0,0,0,0,0,0,0,0,0,0,-0.003295898,-1.011719,-0.3327637,0,0,0,0,0,0
2.279998,-0.6688248,0.9491705,1,0.4167845,0,0,0,0,0,0,0,0,0,0,0,0,0,0,0,0,0,-0.01477051,-0.9661865,-0.3430176,0,0,0,0,0,0
2.283331,-0.6760875,0.9321206,1,0.4172379,0,0,0,0,0,0,0,0,0,0,0,0,0,0,0,0,0,0.0009765625,-0.9439697,-0.387085,0,0,0,0,0,0
2.286665,-0.6839312,0.923907,1,0.4172379,0,0,0,0,0,0,0,0,0,0,0,0,0,0,0,0,0,0.01428223,-0.9460449,-0.3891602,0,0,0,0,0,0
2.289998,-0.6923701,0.9244941,1,0.4091095,0,0,0,0,0,0,0,0,0,0,0,0,0,0,0,0,0,0.004272461,-0.9812012,-0.3786621,0,0,0,0,0,0
2.293331,-0.7002302,0.9163012,1,0.3928797,0,0,0,0,0,0,0,0,0,0,0,0,0,0,0,0,0,-0.02783203,-1.034912,-0.3909912,0,0,0,0,0,0
2.296665,-0.6996371,0.9075292,1,0.3847782,0,0,0,0,0,0,0,0,0,0,0,0,0,0,0,0,0,0.02624512,-1.022583,-0.3768311,0,0,0,0,0,0
2.299998,-0.7068986,0.8906124,1,0.3766855,0,0,0,0,0,0,0,0,0,0,0,0,0,0,0,0,0,0.0324707,-0.9571533,-0.3825684,0,0,0,0,0,0
2.303331,-0.7068986,0.8906124,1,0.3686016,0,0,0,0,0,0,0,0,0,0,0,0,0,0,0,0,0,0.02282715,-0.925415,-0.4154053,0,0,0,0,0,0
2.306665,-0.7147655,0.8824759,1,0.3605264,0,0,0,0,0,0,0,0,0,0,0,0,0,0,-0.001749199,0.01474325,0.001999084,0.03564453,-0.9318848,-0.420166,0,0,0,0,0,0
2.309998,-0.7232483,0.8830822,1,0.3605264,0,0,0,0,0,0,0,0,0,0,0,0,0,0,0.001249428,0.01074508,0.001999084,0.04516602,-0.9406738,-0.4064941,0,0,0,0,0,0
2.313331,-0.7232483,0.8830822,1,0.3605264,0,0,0,0,0,0,0,0,0,0,0,0,0,0,0,0,0,0.04516602,-0.9406738,-0.4064941,0,0,0,0,0,0
2.316665,-0.7311347,0.8749644,1,0.3524597,0,0,0,0,0,0,0,0,0,0,0,0,0,0,0,0,0,0.03723145,-0.9245605,-0.4071045,0,0,0,0,0,0
2.319998,-0.7311347,0.8749644,1,0.3444016,0,0,0,0,0,0,0,0,0,0,0,0,0,0,0,0,0,0.03796387,-0.9244385,-0.4248047,0,0,0,0,0,0
2.323331,-0.7390295,0.8668616,1,0.3444016,0,0,0,0,0,0,0,0,0,0,0,0,0,0,0,0,0,0.02453613,-0.9033203,-0.4176025,0,0,0,0,0,0
2.326665,-0.7384164,0.8581596,1,0.336352,0,0,0,0,0,0,0,0,0,0,0,0,0,0,0,0,0,-0.002319336,-0.8690186,-0.413208,0,0,0,0,0,0
2.329998,-0.7469335,0.8587738,0.9623794,0.3103183,0,0,0,0,0,0,0,0,0,0,0,0,0,0,0,0,0,-0.02124023,-0.8314209,-0.4293213,0,0,0,0,0,0
2.333331,-0.7542298,0.8420238,0.7503596,0.2450923,0,0,0,0,0,0,0,0,0,0,0,0,0,0,0,0,0,-0.01916504,-0.8300781,-0.4407959,0,0,0,0,0,0
2.336665,-0.7700843,0.8259454,0.3564052,0.1356232,0,0,0,0,0,0,0,0,0,0,0,0,0,0,0,0,0,-0.009033203,-0.878418,-0.4400635,0,0,0,0,0,0
2.339998,-0.7774033,0.8092968,-0.1305021,-0.03814678,0,0,0,0,0,0,0,0,0,0,0,0,0,0,0,0,0,0.06787109,-1.007813,-0.298584,0,0,0,0,0,0
2.343331,-0.7933249,0.7933249,-0.1189858,-0.02832994,0,0,0,0,0,0,0,0,0,0,0,0,0,0,0,0,0,0.01953125,-0.8880615,-0.4206543,0,0,0,0,0,0
2.346665,-0.8099219,0.7859832,0.04229435,0.006299159,0,0,0,0,0,0,0,0,0,0,0,0,0,0,0,0,0,-0.190918,-0.7834473,-0.5159912,0,0,0,0,0,0
2.349998,-0.8253221,0.7615291,0,0,0,0,0,0,0,0,0,0,0,0,0,0,0,0,0,0,0,0.06005859,-0.9816895,-0.4129639,0,0,0,0,0,0
2.353331,-0.8414034,0.7456988,0,0,0,0,0,0,0,0,0,0,0,0,0,0,0,0,0.05148061,0.009996235,0.01024614,-0.02905273,-0.8728027,-0.3691406,0,0,0,0,0,0
2.356665,-0.8569256,0.7214118,0,0,0,0,0,0,0,0,0,0,0,0,0,0,0,0,0.0375974,0.0117636,0.01245558,0.03161621,-0.963501,-0.4205322,0,0,0,0,0,0
2.359998,-0.8731322,0.7056823,0,0,0,0,0,0,0,0,0,0,0,0,0,0,0,0,0.05047688,0.01024531,0.007746452,-0.007202148,-0.9034424,-0.4056396,0,0,0,0,0,0
2.363331,-0.8731322,0.7056823,0,0,0,0,0,0,0,0,0,0,0,0,0,0,0,0,0,0,0,-0.007202148,-0.9034424,-0.4056396,0,0,0,0,0,0
2.366665,-0.8894031,0.6899853,0,0,0,0,0,0,0,0,0,0,0,0,0,0,0,0,0,0,0,0.03210449,-0.8968506,-0.3660889,0,0,0,0,0,0
2.369998,-0.9051422,0.6658976,0,0,0,0,0,0,0,0,0,0,0,0,0,0,0,0,0,0,0,0.005981445,-0.9047852,-0.3648682,0,0,0,0,0,0
2.373331,-0.9203799,0.6335082,0,0,0,0,0,0,0,0,0,0,0,0,0,0,0,0,0,0,0,-0.004760742,-0.9077148,-0.3717041,0,0,0,0,0,0
2.376665,-0.9368855,0.6179457,0,0,0,0,0,0,0,0,0,0,0,0,0,0,0,0,0,0,0,-0.01843262,-0.8204346,-0.3123779,0,0,0,0,0,0
2.379998,-0.9440273,0.5935025,0,0,0,0,0,0,0,0,0,0,0,0,0,0,0,0,0,0,0,0.07739258,-1.030518,-0.4526367,0,0,0,0,0,0
2.383331,-0.9601151,0.5696949,0,0,0,0,0,0,0,0,0,0,0,0,0,0,0,0,0,0,0,0.05334473,-1.088867,-0.3536377,0,0,0,0,0,0
2.386665,-0.9673843,0.5453978,0,0,0,0,0,0,0,0,0,0,0,0,0,0,0,0,0,0,0,0.007080078,-1.055542,-0.2814941,0,0,0,0,0,0
2.389998,-0.9747131,0.5211732,0,0,0,0,0,0,0,0,0,0,0,0,0,0,0,0,0,0,0,0.03674316,-1.064453,-0.2879639,0,0,0,0,0,0
2.393331,-0.9831394,0.5134615,0,0,0,0,0,0,0,0,0,0,0,0,0,0,0,0,-0.01599267,0.02099039,-0.005747368,0.05615234,-1.084839,-0.2698975,0,0,0,0,0,0
2.396665,-0.9826212,0.5052344,0,0,0,0,0,0,0,0,0,0,0,0,0,0,0,0,-0.03806207,0.01960774,-0.005305622,0.07299805,-1.088257,-0.2915039,0,0,0,0,0,0
2.399998,-0.9821059,0.4970172,0,0,0,0,0,0,0,0,0,0,0,0,0,0,0,0,-0.0639707,0.01674233,-0.007746452,0.03723145,-1.023438,-0.3659668,0,0,0,0,0,0
2.403331,-0.9815939,0.4888099,0,0,0,0,0,0,0,0,0,0,0,0,0,0,0,0,-0.07071761,0.01149474,-0.009245765,0.02172852,-0.9630127,-0.4182129,0,0,0,0,0,0
2.406665,-0.9815939,0.4888099,0,0,0,0,0,0,0,0,0,0,0,0,0,0,0,0,0,0,0,0.02172852,-0.9630127,-0.4182129,0,0,0,0,0,0
2.409998,-0.9810852,0.4806126,0,0,0,0,0,0,0,0,0,0,0,0,0,0,0,0,0,0,0,0.01708984,-0.9111328,-0.4094238,0,0,0,0,0,0
2.413331,-0.9626203,0.4714067,0,0,0,0,0,0,0,0,0,0,0,0,0,0,0,0,0,0,0,0.008178711,-0.8901367,-0.3817139,0,0,0,0,0,0
2.416665,-0.9436333,0.4540495,0,0,0,0,0,0,0,0,0,0,0,0,0,0,0,0,0,0,0,0.0189209,-0.939209,-0.3973389,0,0,0,0,0,0
2.419998,-0.9072236,0.4437934,0,0,0,0,0,0,0,0,0,0,0,0,0,0,0,0,0,0,0,0.02734375,-0.9206543,-0.418457,0,0,0,0,0,0
2.423331,-0.8702905,0.4253886,0,0,0,0,0,0,0,0,0,0,0,0,0,1,0,0,0,0,0,0.01855469,-0.8668213,-0.4129639,0,0,0,0,0,0
2.426665,-0.8333554,0.4069875,0,0,0,0,0,0,0,0,0,0,0,0,0,1,0,0,0,0,0,0.0006103516,-0.8289795,-0.4061279,0,0,0,0,0,0
2.429998,-0.7874894,0.3879826,0,0,0,0,0,0,0,0,0,0,0,0,0,1,0,0,0,0,0,0.005737305,-0.8083496,-0.4401855,0,0,0,0,0,0
2.433331,-0.7327504,0.3682735,0,0,0,0,0,0,0,0,0,0,0,0,0,1,0,0,0,0,0,0.02355957,-0.7729492,-0.5074463,0,0,0,0,0,0
2.436665,-0.6685269,0.3398657,0,0,0,0,0,0,0,0,0,0,0,0,0,1,0,0,0,0,0,0.02392578,-0.7399902,-0.5368652,0,0,0,0,0,0
2.439998,-0.612444,0.3043883,0,0,0,0,0,0,0,0,0,0,0,0,0,1,0,0,0,0,0,0.02050781,-0.7436523,-0.5015869,0,0,0,0,0,0
2.443331,-0.5386063,0.2675197,0,0,0,0,0,0,0,0,0,0,0,0,0,1,0,0,0,0,0,0.01989746,-0.7921143,-0.4624023,0,0,0,0,0,0
2.446665,-0.4647638,0.2306606,0,0,0,0,0,0,0,0,0,0,0,0,0,1,0,0,0.06458449,-0.01753008,-0.01729942,0.002075195,-0.9064941,-0.317627,0,0,0,0,0,0
2.449998,-0.3735528,0.1916488,0,0,0,0,0,0,0,0,1,0,0,0,0,1,0,0,0.07097328,-0.003498683,-0.009996235,0.04980469,-0.8596191,-0.4111328,0,0,0,0,0,0
2.453331,-0.2743341,0.1504413,0,0,0,0,0,0,0,0,1,0,0,0,0,1,0,0,0.08021326,-0.01574279,-0.01974096,0.006347656,-0.779541,-0.5695801,0,0,0,0,0,0
2.456665,-0.2743341,0.1504413,0,0,0,0,0,0,0,0,1,0,0,0,0,1,0,0,0,0,0,0.006347656,-0.779541,-0.5695801,0,0,0,0,0,0
2.459998,-0.1666302,0.09901215,0,0,0,0,0,0,0,0,1,0,0,0,0,1,0,0,0,0,0,-0.05334473,-0.9436035,-0.4359131,0,0,0,0,0,0
2.463331,-0.04508467,0.03188915,0,0,0,0,0,0,0,0,1,0,0,0,0,1,0,0,0,0,0,-0.01245117,-0.9057617,-0.387207,0,0,0,0,0,0
2.466665,0,0,0,0,0,0,0,0,0,0,1,0,0,0,0,1,0,0,0,0,0,0.01306152,-0.9576416,-0.4042969,0,0,0,0,0,0
2.469998,0,0,0,0,0,0,0,0,0,0,1,0,0,0,0,1,0,0,0,0,0,-0.08300781,-0.9945068,-0.3381348,0,0,0,0,0,0
2.473331,0,0,0,0,0,0,0,0,0,0,1,0,0,0,0,1,0,0,0,0,0,-0.05981445,-1.039429,-0.2758789,0,0,0,0,0,0
2.476665,0,0,0,0,0,0,0,0,0,0,1,0,0,0,0,1,0,0,0,0,0,-0.009765625,-1.061401,-0.3348389,0,0,0,0,0,0
2.479998,0,0,0,0,0,0,0,0,0,0,1,0,0,0,0,1,0,0,0,0,0,-0.006591797,-1.022217,-0.3632813,0,0,0,0,0,0
2.483331,0,0,0,0,0,0,0,0,0,0,1,0,0,0,0,1,0,0,0,0,0,-0.02734375,-0.9824219,-0.319458,0,0,0,0,0,0
2.486665,0,0,0,0,0,0,0,0,0,0,1,0,0,0,0,1,0,0,0,0,0,-0.0378418,-0.9888916,-0.298584,0,0,0,0,0,0
2.489998,0.004892851,0.0006272887,0,0,0,0,0,0,0,0,1,0,0,0,0,1,0,0,0.05720845,-0.006228339,-0.002076113,-0.0345459,-1.016602,-0.3175049,0,0,0,0,0,0
2.493331,0.06883083,0.006493475,0,0,0,0,0,0,0,0,1,0,0,0,0,1,0,0,0.04822791,-0.005247597,0.00224897,-0.03979492,-1.026245,-0.328125,0,0,0,0,0,0
2.496665,0.1607354,0.01100928,0,0,0,0,0,0,0,0,1,0,0,0,0,1,0,0,0.03398444,-0.001499313,0.005247597,-0.03137207,-0.9886475,-0.335083,0,0,0,0,0,0
2.499998,0.1607354,0.01100928,0,0,0,0,0,0,0,0,1,0,0,0,0,1,0,0,0,0,0,-0.03137207,-0.9886475,-0.335083,0,0,0,0,0,0
2.503331,0.2344186,0.01316958,0,0,0,0,0,0,0,0,1,0,0,0,0,1,0,0,0,0,0,-0.01550293,-0.9666748,-0.3299561,0,0,0,0,0,0
2.506665,0.3264797,0.00898568,0,0,0,0,0,0,0,0,1,0,0,0,0,1,0,0,0,0,0,0.005737305,-0.9475098,-0.3417969,0,0,0,0,0,0
2.509998,0.4186851,0,0,0,0,0,0,0,0,0,1,0,0,0,0,1,0,0,0,0,0,0.02905273,-0.9331055,-0.3590088,0,0,0,0,0,0
2.513331,0.5201885,-0.003444956,0,0,0,0,0,0,0,0,1,0,0,0,0,1,0,0,0,0,0,0.0324707,-0.9125977,-0.3566895,0,0,0,0,0,0
2.516665,0.6217105,-0.01078111,0,0,0,0,0,0,0,0,1,0,0,0,0,1,0,0,0,0,0,0.03356934,-0.9128418,-0.352417,0,0,0,0,0,0
2.519998,0.7232413,-0.01854465,0,0,0,0,0,0,0,0,1,0,0,0,0,1,0,0,0,0,0,0.06689453,-0.9233398,-0.3703613,0,0,0,0,0,0
2.523331,0.8248344,-0.03420972,0,0,0,0,0,0,0,0,1,0,0,0,0,1,0,0,0,0,0,0.05432129,-0.9283447,-0.3862305,0,0,0,0,0,0
2.526664,0.9171448,-0.04256791,0,0,0,0,0,0,0,0,1,0,0,0,0,1,0,0,0,0,0,0.02539063,-0.9423828,-0.3449707,0,0,0,0,0,0
2.529998,1,-0.04314433,0,0,0,0,0,0,0,0,1,0,0,0,0,1,0,0,0,0,0,0.02563477,-0.9503174,-0.347168,0,0,0,0,0,0
2.533331,1,-0.04314433,0,0,0,0,0,0,0,0,1,0,0,0,0,1,0,0,0.0362334,0.01274416,0.006247139,-0.03515625,-0.9222412,-0.3878174,0,0,0,0,0,0
2.536664,1,-0.04314433,0,0,0,0,0,0,0,0,1,0,0,0,0,1,0,0,0.0397318,0.01274416,0.00224897,-0.002319336,-0.9642334,-0.3961182,0,0,0,0,0,0
2.539998,1,-0.04314433,0,0,0,0,0,0,0,0,1,0,0,0,0,1,0,0,0.03644411,0.01268624,0.001383953,0.04174805,-0.9440918,-0.3782959,0,0,0,0,0,0
2.543331,1,-0.04314433,0,0,0,0,0,0,0,0,1,0,0,0,0,1,0,0,0,0,0,0.04174805,-0.9440918,-0.3782959,0,0,0,0,0,0
2.546664,1,-0.04314433,0,0,0,0,0,0,0,0,0,0,0,0,0,1,0,0,0,0,0,0.0534668,-0.8952637,-0.3707275,0,0,0,0,0,0
2.549998,1,-0.04314433,0,0,0,0,0,0,0,0,0,0,0,0,0,1,0,0,0,0,0,0.04248047,-0.8408203,-0.3461914,0,0,0,0,0,0
2.553331,1,-0.035298,0,0,0,0,0,0,0,0,0,0,0,0,0,1,0,0,0,0,0,-0.01013184,-0.9708252,-0.3682861,0,0,0,0,0,0
2.556664,1,-0.01960851,0,0,0,0,0,0,0,0,0,0,0,0,0,1,0,0,0,0,0,0.0291748,-0.8911133,-0.3575439,0,0,0,0,0,0
2.559998,1,-0.01176485,0,0,0,0,0,0,0,0,0,0,0,0,0,1,0,0,0,0,0,0.1040039,-0.8509521,-0.3598633,0,0,0,0,0,0
2.563331,1,0,0,0,0,0,0,0,0,0,0,0,0,0,0,0,0,0,0,0,0,0.1259766,-0.8692627,-0.3662109,0,0,0,0,0,0
2.566664,1,0.01960851,0,0,0,0,0,0,0,0,0,0,0,0,0,0,0,0,0,0,0,0.06091309,-0.942749,-0.350708,0,0,0,0,0,0
2.569998,1,0.035298,0,0,0,0,0,0,0,0,0,0,0,0,0,0,0,0,0,0,0,0.03967285,-0.9805908,-0.3457031,0,0,0,0,0,0
2.573331,1,0.05884144,0,0,0,0,0,0,0,0,0,0,0,0,0,0,0,0,0,0,0,0.01953125,-0.8800049,-0.362915,0,0,0,0,0,0
2.576664,1,0.07454614,0,0,0,0,0,0,0,0,0,0,0,0,0,0,0,0,0.08396839,0.003748589,-0.01374483,-0.01513672,-0.6685791,-0.2919922,0,0,0,0,0,0
2.579998,1,0.09026043,0,0,0,0,0,0,0,0,0,0,0,0,0,0,0,0,0.1010286,-0.0002306589,-0.01822205,-0.003540039,-0.8934326,-0.5966797,0,0,0,0,0,0
2.583331,1,0.113854,0,0,0,0,0,0,0,0,0,0,0,0,0,0,0,0,0.1301904,-0.01349382,-0.005747368,0.01757813,-0.970459,-0.4365234,0,0,0,0,0,0
2.586664,1,0.1296006,0,0,0,0,0,0,0,0,0,0,0,0,0,0,0,0,0.1336888,-0.008246223,0.004248055,-0.01403809,-0.9556885,-0.3381348,0,0,0,0,0,0
2.589998,1,0.1296006,0,0,0,0,0,0,0,0,0,0,0,0,0,0,0,0,0,0,0,-0.01403809,-0.9556885,-0.3381348,0,0,0,0,0,0
2.593331,1,0.1453634,0,0,0,0,0,0,0,0,0,0,0,0,0,0,0,0,0,0,0,0.03051758,-0.9555664,-0.37854,0,0,0,0,0,0
2.596664,1,0.1690417,0,0,0,0,0,0,0,0,0,0,0,0,0,0,0,0,0,0,0,0.02331543,-0.9720459,-0.3681641,0,0,0,0,0,0
2.599998,1,0.1927661,0,0,0,0,0,0,0,0,0,0,0,0,0,0,0,0,0,0,0,-0.005004883,-0.9484863,-0.3181152,0,0,0,0,0,0
2.603331,1,0.2165419,0,0,0,0,0,0,0,0,0,0,0,0,0,0,0,0,0,0,0,0.01196289,-0.9475098,-0.3310547,0,0,0,0,0,0
2.606664,1,0.2403741,0,0,0,0,0,0,0,0,0,0,0,0,0,0,0,0,0.1426963,-0.01649379,0.001999247,0.01965332,-0.9302979,-0.3677979,0,0,0,0,0,0
2.609998,1,0.3122526,0,0,0,0,0,0,0,0,0,0,0,0,0,0,0,0,0,0,0,0.01879883,-0.9547119,-0.3062744,0,0,0,0,0,0
2.613331,1,0.336352,0,0,0,0,0,0,0,0,0,0,0,0,0,0,0,0,0.1599267,-0.009245765,0.01049519,0.03320313,-1.014648,-0.3408203,0,0,0,0,0,0
2.616664,1,0.3605264,0,0,0,0,0,0,0,0,0,0,0,0,0,0,0,0,0.1413939,-0.008073061,0.01314756,-0.005249023,-1.012207,-0.322998,0,0,0,0,0,0
2.619998,1,0.3847782,0,0,0,0,0,0,0,0,0,0,0,0,0,0,0,0,0.1431844,-0.005747368,0.01199451,-0.04711914,-1.009521,-0.2824707,0,0,0,0,0,0
2.623331,1,0.3847782,0,0,0,0,0,0,0,0,0,0,0,0,0,0,0,0,0,0,0,-0.04711914,-1.009521,-0.2824707,0,0,0,0,0,0
2.626664,1,0.4091095,0,0,0,0,0,0,0,0,0,0,0,0,0,0,0,0,0,0,0,-0.04675293,-1.021362,-0.2738037,0,0,0,0,0,0
2.629998,1,0.433522,0,0,0,0,0,0,0,0,0,0,0,0,0,0,0,0,0,0,0,-0.02490234,-1.027344,-0.2928467,0,0,0,0,0,0
2.633331,1,0.4580168,0,0,0,0,0,0,0,0,0,0,0,0,0,0,0,0,0,0,0,-0.01416016,-1.002319,-0.298584,0,0,0,0,0,0
2.636664,1,0.4908059,0,0,0,0,0,0,0,0,0,0,0,0,0,0,0,0,0,0,0,-0.00769043,-0.9776611,-0.2774658,0,0,0,0,0,0
2.639998,1,0.5232409,0,0,0,0,0,0,0,0,0,0,0,0,0,0,0,0,0,0,0,0.01159668,-0.9711914,-0.2818604,0,0,0,0,0,0
2.643331,0.9947014,0.5552751,0,0,0,0,0,0,0,0,0,0,0,0,0,0,0,0,0,0,0,0.02478027,-0.9835205,-0.3040771,0,0,0,0,0,0
2.646664,0.9790122,0.5874074,0,0,0,0,0,0,0,0,0,0,0,0,0,0,0,0,0,0,0,0.04431152,-1.001709,-0.3356934,0,0,0,0,0,0
2.649998,0.9545932,0.6190876,0,0,0,0,0,0,0,0,0,0,0,0,0,0,0,0,0,0,0,0.05297852,-0.9771729,-0.3041992,0,0,0,0,0,0
2.653331,0.9309547,0.6592598,0,0,0,0,0,0,0,0,0,0,0,0,0,0,0,0,0,0,0,0.05383301,-0.9477539,-0.2587891,0,0,0,0,0,0
2.656664,0.8993645,0.7075,0,0,0,0,0,0,0,0,0,0,0,0,0,0,0,0,0,0,0,0.08740234,-0.9221191,-0.3131104,0,0,0,0,0,0
2.659998,0.8674718,0.7475448,0,0,0,0,0,0,0,0,0,0,0,0,0,0,0,0,0.06946818,-0.005997253,0.0154929,0.09130859,-0.9815674,-0.3666992,0,0,0,0,0,0
2.663331,0.8352143,0.779267,0,0,0,0,0,0,0,0,0,0,0,0,0,0,0,0,0.08271211,-0.003748283,0.02448878,0.007080078,-1.018188,-0.310791,0,0,0,0,0,0
2.666664,0.8352143,0.779267,0,0,0,0,0,0,0,0,0,0,0,0,0,0,0,0,0,0,0,0.007080078,-1.018188,-0.310791,0,0,0,0,0,0
2.669998,0.8031714,0.8111632,0,0,0,0,0,0,0,0,0,0,0,0,0,0,0,0,0,0,0,-0.04125977,-1.012207,-0.2839355,0,0,0,0,0,0
2.673331,0.7554604,0.8593862,0,0,0,0,0,0,0,0,0,0,0,0,0,1,0,0,0,0,0,-0.03356934,-1.002808,-0.3258057,0,0,0,0,0,0
2.676664,0.7153703,0.8912154,0,0,0,0,0,0,0,0,0,0,0,0,0,1,0,0,0,0,0,-0.03271484,-0.9720459,-0.3203125,0,0,0,0,0,0
2.679998,0.6676687,0.9315377,0,0,0,0,0,0,0,0,0,0,0,0,0,1,0,0,0,0,0,-0.03356934,-0.9552002,-0.3057861,0,0,0,0,0,0
2.683331,0.6112997,0.9628969,0,0,0,0,0,0,0,0,0,0,0,0,0,1,0,0,0,0,0,-0.02648926,-0.9655762,-0.3065186,0,0,0,0,0,0
2.686664,0.547518,1,0,0,0,0,0,0,0,0,0,0,0,0,0,1,0,0,0,0,0,-0.02319336,-0.9794922,-0.3120117,0,0,0,0,0,0
2.689998,0.4662001,1,-0.04072749,0.002599627,0,0,0,0,0,0,0,0,0,0,0,1,0,0,0,0,0,-0.01550293,-0.9610596,-0.307373,0,0,0,0,0,0
2.693331,0.3928797,1,-0.09573241,0,0,0,0,0,0,0,0,0,0,0,0,1,0,0,0,0,0,0.002319336,-0.9538574,-0.2991943,0,0,0,0,0,0
2.696664,0.3202776,1,-0.1420351,0.006175438,0,0,0,0,0,0,0,0,0,0,0,1,0,0,0.07921372,-0.005997253,0.002998627,-0.008789063,-0.9233398,-0.1877441,0,0,0,0,0,0
2.699998,0.2483314,1,-0.1881317,0.007144243,0,0,0,0,0,0,0,0,0,0,0,1,0,0,0.08745994,-0.00449794,0,0.01550293,-0.861084,-0.2919922,0,0,0,0,0,0
2.703331,0.2483314,1,-0.1881317,0.007144243,0,0,0,0,0,0,0,0,0,0,0,1,0,0,0,0,0,0.01550293,-0.861084,-0.2919922,0,0,0,0,0,0
2.706664,0.1769445,1,-0.2342409,0.00789576,0,0,0,0,0,0,0,0,0,0,0,1,0,0,0,0,0,0.003417969,-0.9776611,-0.3129883,0,0,0,0,0,0
2.709998,0.1059862,1,-0.2526869,0.00815119,0,0,0,0,0,0,0,0,0,0,0,1,0,0,0,0,0,0.0123291,-0.9465332,-0.2607422,0,0,0,0,0,0
2.713331,0.04314433,1,-0.2526869,0.00815119,0,0,0,0,0,0,0,0,0,0,0,1,0,0,0,0,0,0.03710938,-0.9412842,-0.2857666,0,0,0,0,0,0
2.716664,-0.02745281,1,-0.2526869,0.00815119,0,0,0,0,0,0,0,0,0,0,0,1,0,0,0,0,0,0.04211426,-0.9990234,-0.3262939,0,0,0,0,0,0
2.719998,-0.09812176,1,-0.2526869,0.00815119,0,0,0,0,0,0,0,0,0,0,0,1,0,0,0,0,0,-0.0004882813,-0.9827881,-0.3155518,0,0,0,0,0,0
2.723331,-0.1769445,1,-0.2526869,0.00815119,0,0,0,0,0,0,0,0,0,0,0,1,0,0,0,0,0,-0.006347656,-0.9613037,-0.3156738,0,0,0,0,0,0
2.726664,-0.2483314,1,-0.2619103,0.008270851,0,0,0,0,0,0,0,0,0,0,0,1,0,0,0,0,0,0.01660156,-0.9648438,-0.3325195,0,0,0,0,0,0
2.729998,-0.3283107,1,-0.2528496,0.01359407,0,0,0,0,0,0,0,0,0,0,0,1,0,0,0,0,0,0.01135254,-0.9519043,-0.3128662,0,0,0,0,0,0
2.733331,-0.3928797,1,-0.2436337,0.01338647,0,0,0,0,0,0,0,0,0,0,0,1,0,0,0,0,0,-0.004150391,-0.930542,-0.2789307,0,0,0,0,0,0
2.736664,-0.4662001,1,-0.2162817,0.01781143,0,0,0,0,0,0,0,0,0,0,0,1,0,0,0,0,0,0.01269531,-0.9383545,-0.2567139,0,0,0,0,0,0
2.739998,-0.5232409,1,-0.1795021,0.01631838,0,0,0,0,0,0,0,0,0,0,0,1,0,0,0.1229412,-0.02814038,-0.002767907,0.0489502,-0.9453125,-0.2474365,0,0,0,0,0,0
2.743331,-0.5718616,0.995759,-0.1244286,0.0134,0,0,0,0,0,0,0,0,0,0,0,1,0,0,0.1361876,-0.03373455,-0.001999084,0.04406738,-0.9573975,-0.2497559,0,0,0,0,0,0
2.746664,-0.5718616,0.995759,-0.1244286,0.0134,0,0,0,0,0,0,0,0,0,0,0,1,0,0,0,0,0,0.04406738,-0.9573975,-0.2497559,0,0,0,0,0,0
2.749998,-0.6196507,0.9634567,-0.04351817,0.008333266,0,0,0,0,0,0,0,0,0,0,0,1,0,0,0,0,0,0.0267334,-0.9649658,-0.2432861,0,0,0,0,0,0
2.753331,-0.6598403,0.9397725,0,0,0,0,0,0,0,0,0,0,0,0,0,1,0,0,0,0,0,0.0177002,-0.9841309,-0.2366943,0,0,0,0,0,0
2.756664,-0.6911871,0.9069334,0,0,0,0,0,0,0,0,0,0,0,0,0,1,0,0,0,0,0,-0.001464844,-0.9880371,-0.2583008,0,0,0,0,0,0
2.759998,-0.7232483,0.8830822,0,0,0,0,0,0,0,0,0,0,0,0,0,1,0,0,0,0,0,-0.003540039,-0.9945068,-0.2702637,0,0,0,0,0,0
2.763331,-0.7475448,0.8674718,0,0,0,0,0,0,0,0,0,0,0,0,0,1,0,0,0,0,0,0.01574707,-0.9813232,-0.2236328,0,0,0,0,0,0
2.766664,-0.771321,0.8432577,0,0,0,0,0,0,0,0,0,0,0,0,0,1,0,0,0,0,0,0.04101563,-0.9586182,-0.2358398,0,0,0,0,0,0
2.769998,-0.7866051,0.8185484,0,0,0,0,0,0,0,0,0,0,0,0,0,1,0,0,0,0,0,0.04309082,-0.9770508,-0.2663574,0,0,0,0,0,0
2.773331,-0.8025521,0.8025521,0,0,0,0,0,0,0,0,0,0,0,0,0,1,0,0,0,0,0,0.03125,-0.9910889,-0.2388916,0,0,0,0,0,0
2.776664,-0.8179268,0.778028,0,0,0,0,0,0,0,0,0,0,0,0,0,1,0,0,0.1476824,-0.02798718,-0.002748741,0.03088379,-1.002075,-0.2294922,0,0,0,0,0,0
2.779998,-0.8426419,0.7627706,0.03427453,-0.01355039,0,0,0,0,0,0,0,0,0,0,0,1,0,0,0.1314756,-0.02444984,-0.003690542,0.02612305,-1.005859,-0.2418213,0,0,0,0,0,0
2.783331,-0.8426419,0.7627706,0.03427453,-0.01355039,0,0,0,0,0,0,0,0,0,0,0,1,0,0,0,0,0,0.02612305,-1.005859,-0.2418213,0,0,0,0,0,0
2.786664,-0.8500843,0.7463182,0.07840262,-0.0281066,0,0,0,0,0,0,0,0,0,0,0,1,0,0,0,0,0,0.008789063,-0.9910889,-0.2359619,0,0,0,0,0,0
2.789998,-0.8575435,0.7299091,0.1335219,-0.04724622,0,0,0,0,0,0,0,0,0,0,0,1,0,0,0,0,0,-0.002929688,-0.9854736,-0.2266846,0,0,0,0,0,0
2.793331,-0.8731322,0.7056823,0.1814261,-0.07015143,0,0,0,0,0,0,0,0,0,0,0,1,0,0,0,0,0,-0.004272461,-0.9891357,-0.2368164,0,0,0,0,0,0
2.796664,-0.8894031,0.6899853,0.2351512,-0.08378949,0,0,0,0,0,0,0,0,0,0,0,1,0,0,0,0,0,-0.006469727,-0.991333,-0.2437744,0,0,0,0,0,0
2.799998,-0.8969611,0.6737174,0.299232,-0.1036943,0,0,0,0,0,0,0,0,0,0,0,0,0,0,0,0,0,-0.01196289,-0.9984131,-0.2371826,0,0,0,0,0,0
2.803331,-0.9127472,0.6496847,0.3456178,-0.1214333,0,0,0,0,0,0,0,0,0,0,0,0,0,0,0,0,0,-0.02563477,-1.042236,-0.2237549,0,0,0,0,0,0
2.806664,-0.9203799,0.6335082,0.4000594,-0.1333531,0,0,0,0,0,0,0,0,0,0,0,0,0,0,0,0,0,-0.03637695,-1.058594,-0.2072754,0,0,0,0,0,0
2.809998,-0.9280418,0.6173669,0.4464486,-0.151054,0,0,0,0,0,0,0,0,0,0,0,0,0,0,0,0,0,-0.01696777,-1.02063,-0.2176514,0,0,0,0,0,0
2.813331,-0.9440273,0.5935025,0.4928044,-0.168863,0,0,0,0,0,0,0,0,0,0,0,0,0,0,0,0,0,-0.01367188,-0.987793,-0.2385254,0,0,0,0,0,0
2.816664,-0.9517779,0.5774385,0.5481308,-0.1874254,0,0,0,0,0,0,0,0,0,0,0,0,0,0,0.09220777,-0.01649245,-0.002748741,0.004760742,-1.016968,-0.2652588,0,0,0,0,0,0
2.819998,-0.9595633,0.5614042,0.6028585,-0.1985462,0,0,0,0,0,0,0,0,0,0,0,0,0,0,0,0,0,-0.02746582,-0.9711914,-0.2841797,0,0,0,0,0,0
2.823331,-0.9668443,0.5371357,0.657149,-0.2019173,0,0,0,0,0,0,0,0,0,0,0,0,0,0,0.08788879,-0.02029977,-0.003921547,-0.0423584,-0.9467773,-0.2636719,0,0,0,0,0,0
2.826664,-0.9741862,0.5129389,0.7025305,-0.2044401,0,0,0,0,0,0,0,0,0,0,0,0,0,0,0.106951,-0.0189913,-0.007496567,-0.01818848,-0.9090576,-0.2442627,0,0,0,0,0,0
2.829998,-0.9741862,0.5129389,0.7025305,-0.2044401,0,0,0,0,0,0,0,0,0,0,0,0,0,0,0,0,0,-0.01818848,-0.9090576,-0.2442627,0,0,0,0,0,0
2.833331,-0.9815939,0.4888099,0.7389106,-0.2062948,0,0,0,0,0,0,0,0,0,0,0,0,0,0,0,0,0,0.0123291,-0.9313965,-0.2592773,0,0,0,0,0,0
2.836664,-0.9885796,0.4565729,0.7662332,-0.2076001,0,0,0,0,0,0,0,0,0,0,0,0,0,0,0,0,0,0.01623535,-0.9500732,-0.2524414,0,0,0,0,0,0
2.839998,-0.987129,0.4321167,0.7662332,-0.2076001,0,0,0,0,0,0,0,0,0,0,0,0,0,0,0,0,0,0.02087402,-0.958252,-0.2420654,0,0,0,0,0,0
2.843331,-0.9943026,0.4000978,0.7753472,-0.20802,0,0,0,0,0,0,0,0,0,0,0,0,0,0,0,0,0,0.02062988,-0.9572754,-0.2436523,0,0,0,0,0,0
2.846664,-0.9929715,0.3758259,0.7753472,-0.20802,0,0,0,0,0,0,0,0,0,0,0,0,0,0,0,0,0,0.004150391,-0.9509277,-0.2218018,0,0,0,0,0,0
2.849998,-0.9912776,0.3435903,0.7753472,-0.20802,0,0,0,0,0,0,0,0,0,0,0,0,0,0,0,0,0,0.007202148,-0.9570313,-0.2093506,0,0,0,0,0,0
2.853331,-0.9900739,0.3195059,0.7662332,-0.2076001,0,0,0,0,0,0,0,0,0,0,0,0,0,0,0,0,0,0.01281738,-0.9743652,-0.2156982,0,0,0,0,0,0
2.856664,-0.9889324,0.2954977,0.7745395,-0.1926903,0,0,0,0,0,0,0,0,0,0,0,0,0,0,0,0,0,0.01391602,-0.9786377,-0.2175293,0,0,0,0,0,0
2.859998,-0.9882084,0.2795331,0.7737823,-0.1774037,0,0,0,0,0,0,0,0,0,0,0,0,0,0,0,0,0,0.003417969,-0.9581299,-0.199585,0,0,0,0,0,0
2.863331,-0.9875154,0.2635998,0.7727464,-0.1545493,0,0,0,0,0,0,0,0,0,0,0,0,0,0,0.1395486,-0.01983666,-0.001845271,0,-0.9447021,-0.1921387,0,0,0,0,0,0
2.866664,-0.9868547,0.2476966,0.7718366,-0.131777,0,0,0,0,0,0,0,0,0,0,0,0,0,0,0.1544293,-0.01799176,-0.001749199,0.01757813,-0.9532471,-0.2050781,0,0,0,0,0,0
2.869998,-0.977073,0.2315153,0.7802535,-0.1093109,0,0,0,0,0,0,0,0,0,0,0,0,0,0,0.1589272,-0.01749199,0,0.0222168,-0.9620361,-0.223877,0,0,0,0,0,0
2.873331,-0.9581493,0.2150947,0.7978687,-0.07940874,0,0,0,0,0,0,0,0,0,0,0,0,0,0,0.1515429,-0.01568481,0.0009226355,0.01611328,-0.9506836,-0.2230225,0,0,0,0,0,0
2.876664,-0.9581493,0.2150947,0.7978687,-0.07940874,0,0,0,0,0,0,0,0,0,0,0,0,0,0,0,0,0,0.01611328,-0.9506836,-0.2230225,0,0,0,0,0,0
2.879997,-0.9392329,0.1987588,0.8433554,-0.04197697,0,0,0,0,0,0,0,0,0,0,0,0,0,0,0,0,0,0.01049805,-0.9570313,-0.2053223,0,0,0,0,0,0
2.883331,-0.9019849,0.1819455,0.8800613,-0.01152919,0,0,0,0,0,0,0,0,0,0,0,0,0,0,0,0,0,0.0006103516,-0.9555664,-0.2137451,0,0,0,0,0,0
2.886664,-0.8647287,0.1652593,0.935593,0.04270342,0,0,0,0,0,0,0,0,0,0,0,0,0,0,0,0,0,-0.005371094,-0.9578857,-0.2325439,0,0,0,0,0,0
2.889997,-0.8274657,0.148715,0.9822818,0.09000989,0,0,0,0,0,0,0,0,0,0,0,0,0,0,0,0,0,-0.01708984,-0.9637451,-0.2352295,0,0,0,0,0,0
2.893331,-0.7807474,0.124467,1,0.1296006,0,0,0,0,0,0,0,0,0,0,0,0,0,0,0,0,0,-0.02758789,-0.9678955,-0.2127686,0,0,0,0,0,0
2.896664,-0.7251031,0.1078358,1,0.1769445,0,0,0,0,0,0,0,0,0,0,0,0,0,0,0,0,0,-0.04785156,-0.947876,-0.2071533,0,0,0,0,0,0
2.899997,-0.6878307,0.09195598,1,0.2086106,0,0,0,0,0,0,0,0,0,0,0,0,0,0,0,0,0,-0.02746582,-0.9533691,-0.2121582,0,0,0,0,0,0
2.903331,-0.6321682,0.07586019,1,0.2324234,0,0,0,0,0,0,0,0,0,0,0,0,0,0,0,0,0,-0.005859375,-0.9705811,-0.1967773,0,0,0,0,0,0
2.906664,-0.5857044,0.0603453,1,0.2642672,0,0,0,0,0,0,0,0,0,0,0,0,0,0,0,0,0,-0.002563477,-0.987793,-0.1724854,0,0,0,0,0,0
2.909997,-0.5298661,0.03809495,1,0.3042357,0,0,0,0,0,0,0,0,0,0,0,0,0,0,0.2266462,-0.02198993,-0.007746452,-0.005859375,-1.030518,-0.1512451,0,0,0,0,0,0
2.913331,-0.4742655,0.0235451,1,0.3283107,0,0,0,0,0,0,0,0,0,0,0,0,0,0,0.2231478,-0.02174004,-0.007246681,-0.01159668,-1.069214,-0.1269531,0,0,0,0,0,0
2.916664,-0.4094579,0,1,0.3524597,0,0,0,0,0,0,0,0,0,0,0,0,0,0,0.2146517,-0.0207405,-0.005747368,-0.01306152,-1.099731,-0.09753418,0,0,0,0,0,0
2.919997,-0.3357045,-0.009073096,1,0.3686016,0,0,0,0,0,0,0,0,0,0,0,0,0,0,0.2014078,-0.02049061,-0.004747826,-0.01403809,-1.121094,-0.06494141,0,0,0,0,0,0
2.923331,-0.3357045,-0.009073096,1,0.3686016,0,0,0,0,0,0,0,0,0,0,0,0,0,0,0,0,0,-0.01403809,-1.121094,-0.06494141,0,0,0,0,0,0
2.926664,-0.2620663,-0.01379296,1,0.3928797,0,0,0,0,0,0,0,0,0,0,0,0,0,0,0,0,0,-0.009643555,-1.120605,-0.04785156,0,0,0,0,0,0
2.929997,-0.1886933,-0.01671966,1,0.4091095,0,0,0,0,0,0,0,0,0,0,0,0,0,0,0,0,0,-0.004394531,-1.090942,-0.03198242,0,0,0,0,0,0
2.933331,-0.1159605,-0.01656578,1,0.4253754,0,0,0,0,0,0,0,0,0,0,0,0,0,0,0,0,0,-0.002075195,-1.101685,-0.02783203,0,0,0,0,0,0
2.936664,-0.05249975,-0.009642811,1,0.4253754,0,0,0,0,0,0,0,0,0,0,0,0,0,0,0,0,0,0.001220703,-1.113525,-0.02233887,0,0,0,0,0,0
2.939997,0,0,1,0.4253754,0,0,0,0,0,0,0,0,0,0,0,0,0,0,0,0,0,0.008544922,-1.122803,-0.01501465,0,0,0,0,0,0
2.943331,0,0,1,0.4253754,0,0,0,0,0,0,0,0,0,0,0,0,0,0,0,0,0,0.01086426,-1.132446,-0.006347656,0,0,0,0,0,0
2.946664,0,0,1,0.4253754,0,0,0,0,0,0,0,0,0,0,0,0,0,0,0,0,0,0.009765625,-1.121826,-0.006591797,0,0,0,0,0,0
2.949997,0,0,1,0.4253754,0,0,0,0,0,0,0,0,0,0,0,0,0,0,0,0,0,0.009399414,-1.104126,-0.01818848,0,0,0,0,0,0
2.953331,0,0,1,0.4253754,0,0,0,0,0,0,0,0,0,0,0,0,0,0,0,0,0,0.01403809,-1.096069,-0.01489258,0,0,0,0,0,0
2.956664,0,0,1,0.4253754,0,0,0,0,0,0,0,0,0,0,0,0,0,0,0.03828938,-0.02375787,-0.0004613178,0.01977539,-1.082153,-0.01940918,0,0,0,0,0,0
2.959997,0,0,1,0.4253754,0,0,0,0,0,0,0,0,0,0,0,0,0,0,0.03048604,-0.02823707,-0.003248512,0.02502441,-1.071411,-0.03662109,0,0,0,0,0,0
2.963331,0,0,1,0.4253754,0,0,0,0,0,0,0,0,0,0,0,0,0,0,0,0,0,0.02502441,-1.071411,-0.03662109,0,0,0,0,0,0
2.966664,0,0,1,0.4253754,0,0,0,0,0,0,0,0,0,0,0,0,0,0,0,0,0,0.01757813,-1.062378,-0.04052734,0,0,0,0,0,0
2.969997,0,0,1,0.4253754,0,0,0,0,0,0,0,0,0,0,0,0,0,0,0,0,0,0.007568359,-1.061035,-0.03674316,0,0,0,0,0,0
2.973331,0,0,1,0.4253754,0,0,0,0,0,0,0,0,0,0,0,0,0,0,0,0,0,0.001708984,-1.074951,-0.02490234,0,0,0,0,0,0
2.976664,0,0,1,0.4253754,0,0,0,0,0,0,0,0,0,0,0,0,0,0,0,0,0,0.001953125,-1.08667,-0.007446289,0,0,0,0,0,0
2.979997,0,0,1,0.4253754,0,0,0,0,0,0,0,0,0,0,0,0,0,0,0,0,0,0.01330566,-1.104736,0.008789063,0,0,0,0,0,0
2.983331,0,0,1,0.4172379,0,0,0,0,0,0,0,0,0,0,0,0,0,0,0,0,0,0.02380371,-1.118408,0.01696777,0,0,0,0,0,0
2.986664,0,0,1,0.4091095,0,0,0,0,0,0,0,0,0,0,0,0,0,0,0,0,0,0.02685547,-1.11438,0.01831055,0,0,0,0,0,0
2.989997,0,0,0.9486455,0.3896925,0,0,0,0,0,0,0,0,0,0,0,0,0,0,0,0,0,0.02832031,-1.098755,0.01928711,0,0,0,0,0,0
2.993331,0,0,0.8204182,0.3505073,0,0,0,0,0,0,0,0,0,0,0,0,0,0,-0.07771441,-0.07546544,-0.03023615,0.03393555,-1.082153,0.01220703,0,0,0,0,0,0
2.996664,0,0,0.6183999,0.2744379,0,0,0,0,0,0,0,0,0,0,0,0,0,0,-0.07727072,-0.07081228,-0.02652577,0.0423584,-1.067627,0.01293945,0,0,0,0,0,0
2.999997,0,0,0.240353,0.1077445,0,0,0,0,0,0,0,0,0,0,0,0,0,0,-0.08196913,-0.07772074,-0.02823937,0.02404785,-1.077393,-0.002075195,0,0,0,0,0,0
3.003331,0,0,0.240353,0.1077445,0,0,0,0,0,0,0,0,0,0,0,0,0,0,0,0,0,0.02404785,-1.077393,-0.002075195,0,0,0,0,0,0
3.006664,0,0,-0.1319605,-0.04263338,0,0,0,0,0,0,0,0,0,0,0,0,0,0,0,0,0,0.1218262,-1.162354,0.1403809,0,0,0,0,0,0
3.009997,0,0,0,0,0,0,0,0,0,0,0,0,0,0,0,0,0,0,0,0,0,0.06799316,-1.034912,0.02502441,0,0,0,0,0,0
3.013331,0,0,0,0,0,0,0,0,0,0,0,0,0,0,0,0,0,0,0,0,0,-0.1496582,-0.84729,-0.06689453,0,0,0,0,0,0
3.016664,0,0,0,0,0,0,0,0,0,0,0,0,0,0,0,0,0,0,0,0,0,0.1787109,-0.9737549,-0.06433105,0,0,0,0,0,0
3.019997,0,0,0,0,0,0,0,0,0,0,0,0,0,0,0,0,0,0,0,0,0,-0.03967285,-0.9197998,-0.07958984,0,0,0,0,0,0
3.023331,0,0,0,0,0,0,0,0,0,0,0,0,0,0,0,0,0,0,0,0,0,0.06677246,-0.9863281,-0.07263184,0,0,0,0,0,0
3.026664,0,0,0,0,0,0,0,0,0,0,0,0,0,0,0,0,0,0,0,0,0,0.05529785,-0.9790039,-0.06384277,0,0,0,0,0,0
3.029997,0,0,0,0,0,0,0,0,0,0,0,0,0,0,0,0,0,0,-0.04359453,-0.06550712,-0.005074495,0.04418945,-1.02417,-0.04016113,0,0,0,0,0,0
3.033331,0,0,0,0,0,0,0,0,0,0,0,0,0,0,0,0,0,0,-0.05197619,-0.07171715,-0.0004997711,0.03039551,-1.043701,-0.02770996,0,0,0,0,0,0
3.036664,0,0,0,0,0,0,0,0,0,0,0,0,0,0,0,0,0,0,0,0,0,0.03039551,-1.043701,-0.02770996,0,0,0,0,0,0
3.039997,0,0,0,0,0,0,0,0,0,0,0,0,0,0,0,0,0,0,0,0,0,0.02270508,-1.049194,-0.01025391,0,0,0,0,0,0
3.043331,0,0,0,0,0,0,0,0,0,0,0,0,0,0,0,0,0,0,0,0,0,0.02819824,-1.057861,0.04223633,0,0,0,0,0,0
3.046664,0.01099935,0.03807466,0,0,0,0,0,0,0,0,0,0,0,0,0,0,0,0,0,0,0,0.05773926,-1.065674,0.09094238,0,0,0,0,0,0
3.049997,0.0193842,0.0820101,0,0,0,0,0,0,0,0,0,0,0,0,0,0,0,0,0,0,0,0.08496094,-1.045288,0.09143066,0,0,0,0,0,0
3.053331,0.02636326,0.1358722,0,0,0,0,0,0,0,0,0,0,0,0,0,0,0,0,0,0,0,0.09277344,-1.062134,0.02832031,0,0,0,0,0,0
3.056664,0.03132284,0.1903465,0,0,0,0,0,0,0,0,0,0,0,0,0,0,0,0,0,0,0,0.08447266,-1.046753,0.008422852,0,0,0,0,0,0
3.059997,0.03447099,0.2359937,0,0,0,0,0,0,0,0,0,0,0,0,0,0,0,0,0,0,0,0.08325195,-1.047119,0.01831055,0,0,0,0,0,0
3.063331,0.03744874,0.2909479,0,0,0,0,0,0,0,0,0,0,0,0,0,0,0,0,0,0,0,0.06774902,-1.051514,0.03259277,0,0,0,0,0,0
3.066664,0.03980804,0.3460237,0,0,0,0,0,0,0,0,0,0,0,0,0,0,0,0,0,0,0,0.05065918,-1.029419,0.02478027,0,0,0,0,0,0
3.069997,0.04142888,0.3919809,0,0,0,0,0,0,0,0,0,0,0,0,0,1,0,0,-0.1040272,-0.06758305,-0.0415186,0.04394531,-0.9970703,0.008911133,0,0,0,0,0,0
3.073331,0.04255018,0.4287749,0,0,0,0,0,0,0,0,0,0,0,0,0,1,0,0,-0.1062014,-0.07821418,-0.05322562,0.04370117,-0.9074707,-0.02709961,0,0,0,0,0,0
3.076664,0.0435442,0.465588,0,0,0,0,0,0,0,0,0,0,0,0,0,1,0,0,-0.08496109,-0.08596063,-0.0639707,0.02905273,-0.8210449,-0.07653809,0,0,0,0,0,0
3.079997,0.04421864,0.4932079,0,0,0,0,0,0,0,0,0,0,0,0,0,1,0,0,-0.04451717,-0.0858051,-0.07219624,0.01281738,-0.7307129,-0.1147461,0,0,0,0,0,0
3.083331,0.04463844,0.5116252,0,0,0,0,0,0,0,0,0,0,0,0,0,1,0,0,0.005747836,-0.09671359,-0.09246518,0.02392578,-0.7199707,-0.145752,0,0,0,0,0,0
3.086664,0.04463844,0.5116252,0,0,0,0,0,0,0,0,0,0,0,0,0,1,0,0,0,0,0,0.02392578,-0.7199707,-0.145752,0,0,0,0,0,0
3.089997,0.04484009,0.5208349,0,0,0,0,0,0,0,0,0,0,0,0,0,1,0,0,0,0,0,0.04675293,-0.8006592,-0.1318359,0,0,0,0,0,0
3.093331,0.04484009,0.5208349,0,0,0,0,0,0,0,0,0,0,0,0,0,1,0,0,0,0,0,0.07336426,-1.032227,-0.08557129,0,0,0,0,0,0
3.096664,0.04484009,0.5208349,0,0,0,0,0,0,0,0,1,0,0,0,0,1,0,0,0,0,0,0.02490234,-0.8631592,-0.07727051,0,0,0,0,0,0
3.099997,0.04484009,0.5208349,0,0,0,0,0,0,0,0,1,0,0,0,0,1,0,0,0,0,0,0.0201416,-0.9997559,-0.06091309,0,0,0,0,0,0
3.103331,0.04484009,0.5208349,0,0,0,0,0,0,0,0,1,0,0,0,0,1,0,0,0,0,0,0.05297852,-1.05896,-0.01403809,0,0,0,0,0,0
3.106664,0.03792822,0.520651,0,0,0,0,0,0,0,0,1,0,0,0,0,1,0,0,0,0,0,0.0489502,-1.015015,-0.03845215,0,0,0,0,0,0
3.109997,0.03792822,0.520651,0,0,0,0,0,0,0,0,1,0,0,0,0,1,0,0,0,0,0,0.02880859,-1.109741,-0.0279541,0,0,0,0,0,0
3.113331,0.03102301,0.5204972,0,0,0,0,0,0,0,0,1,0,0,0,0,1,0,0,0,0,0,0.02307129,-1.102295,-0.01342773,0,0,0,0,0,0
3.116664,0.02412329,0.5203739,0,0,0,0,0,0,0,0,1,0,0,0,0,1,0,0,0,0,0,-0.02868652,-1.094238,0.1022949,0,0,0,0,0,0
3.119997,0.01722785,0.5202813,0,0,0,0,0,0,0,0,1,0,0,0,0,1,0,0,0,0,0,0.07128906,-0.9993896,0.04626465,0,0,0,0,0,0
3.123331,0.01033548,0.5202194,0,0,0,0,0,0,0,0,1,0,0,0,0,1,0,0,0,0,0,0.1009521,-1.016479,-0.0201416,0,0,0,0,0,0
3.126664,0.003444956,0.5201885,0,0,0,0,0,0,0,0,1,0,0,0,0,1,0,0,0,0,0,0.09155273,-1.109985,-0.05407715,0,0,0,0,0,0
3.129997,-0.01033548,0.5202194,0,0,0,0,0,0,0,0,1,0,0,0,0,1,0,0,0.14602,-0.04728924,0.01199532,0.08483887,-1.141479,-0.05993652,0,0,0,0,0,0
3.133331,-0.01033548,0.5202194,0,0,0,0,0,0,0,0,1,0,0,0,0,1,0,0,0,0,0,0.08483887,-1.141479,-0.05993652,0,0,0,0,0,0
3.136664,-0.02412329,0.5203739,0,0,0,0,0,0,0,0,1,0,0,0,0,1,0,0,0.3073592,-0.1184458,0.05897299,0.07299805,-1.116333,-0.02026367,0,0,0,0,0,0
3.139997,-0.05868855,0.5212924,0,0,0,0,0,0,0,0,1,0,0,0,0,1,0,0,0,0,0,0.0592041,-1.17688,0.01525879,0,0,0,0,0,0
3.143331,-0.0725775,0.5218668,0,0,0,0,0,0,0,0,1,0,0,0,0,1,0,0,0,0,0,0.07580566,-1.203857,0.02294922,0,0,0,0,0,0
3.146664,-0.08651566,0.5225546,0,0,0,0,0,0,0,0,1,0,0,0,0,1,0,0,0,0,0,0.0723877,-1.213501,0.0300293,0,0,0,0,0,0
3.149997,-0.1005113,0.5233517,0,0,0,0,0,0,0,0,1,0,0,0,0,1,0,0,0,0,0,0.05200195,-1.221924,0.05725098,0,0,0,0,0,0
3.153331,-0.1135953,0.5060155,0,0,0,0,0,0,0,0,1,0,0,0,0,1,0,0,0,0,0,0.04968262,-1.226685,0.07751465,0,0,0,0,0,0
3.156664,-0.1195226,0.4883352,0,0,0,0,0,0,0,0,1,0,0,0,0,1,0,0,0.08395983,-0.07219624,0.07773204,0.04724121,-1.221802,0.07043457,0,0,0,0,0,0
3.159997,-0.1183863,0.4701629,0,0,0,0,0,0,0,0,1,0,0,0,0,1,0,0,0.07896384,-0.0779643,0.09420685,0.03076172,-1.2229,0.06713867,0,0,0,0,0,0
3.163331,-0.1234064,0.4435959,0,0,0,0,0,0,0,0,1,0,0,0,0,1,0,0,0.06797441,-0.07447196,0.1059601,0.0078125,-1.22522,0.08666992,0,0,0,0,0,0
3.166664,-0.1234064,0.4435959,0,0,0,0,0,0,0,0,1,0,0,0,0,1,0,0,0,0,0,0.0078125,-1.22522,0.08666992,0,0,0,0,0,0
3.169997,-0.1220497,0.4255248,0,0,0,0,0,0,0,0,1,0,0,0,0,1,0,0,0,0,0,0.002929688,-1.217407,0.0970459,0,0,0,0,0,0
3.173331,-0.1265936,0.3992569,0,0,0,0,0,0,0,0,1,0,0,0,0,1,0,0,0,0,0,0.01904297,-1.208862,0.07214355,0,0,0,0,0,0
3.176664,-0.1249721,0.3813252,0,0,0,0,0,0,0,0,1,0,0,0,0,1,0,0,0,0,0,0.01159668,-1.191406,0.0760498,0,0,0,0,0,0
3.179997,-0.1307975,0.3732513,0,0,0,0,0,0,0,0,1,0,0,0,0,1,0,0,0,0,0,-0.01196289,-1.139526,0.0838623,0,0,0,0,0,0
3.183331,-0.1356232,0.3564052,0,0,0,0,0,0,0,0,1,0,0,0,0,1,0,0,0,0,0,-0.01403809,-1.067993,0.04528809,0,0,0,0,0,0
3.186664,-0.1423232,0.3573892,0,0,0,0,0,0,0,0,1,0,0,0,0,1,0,0,0,0,0,0.01623535,-1.054321,-0.004394531,0,0,0,0,0,0
3.189997,-0.1480319,0.3496073,0,0,0,0,0,0,0,0,1,0,0,0,0,1,0,0,0,0,0,0.03369141,-1.045898,-0.05126953,0,0,0,0,0,0
3.193331,-0.1548005,0.3506705,0,0,0,0,0,0,0,0,1,0,0,0,0,1,0,0,0,0,0,0.0411377,-1.05481,-0.06994629,0,0,0,0,0,0
3.196664,-0.1605068,0.3430438,0,0,0,0,0,0,0,0,1,0,0,0,0,1,0,0,0.002767907,-0.02329655,0.1321675,0.03112793,-1.046143,-0.06420898,0,0,0,0,0,0
3.199997,-0.1673533,0.3441795,0,0,0,0,0,0,0,0,1,0,0,0,0,1,0,0,-0.004248747,-0.02199351,0.1377094,0.01098633,-1.016235,-0.07543945,0,0,0,0,0,0
3.203331,-0.1742509,0.3453335,0,0,0,0,0,0,0,0,1,0,0,0,0,1,0,0,-0.005997253,-0.01774187,0.1289409,-0.01293945,-0.9775391,-0.09020996,0,0,0,0,0,0
3.206664,-0.1742509,0.3453335,0,0,0,0,0,0,0,0,1,0,0,0,0,1,0,0,0,0,0,-0.01293945,-0.9775391,-0.09020996,0,0,0,0,0,0
3.209997,-0.1811994,0.3465042,0,0,0,0,0,0,0,0,1,0,0,0,0,1,0,0,0,0,0,-0.04345703,-0.9501953,-0.1159668,0,0,0,0,0,0
3.213331,-0.1952491,0.3488878,0,0,0,0,0,0,0,0,0,0,0,0,0,1,0,0,0,0,0,-0.06274414,-0.9091797,-0.1331787,0,0,0,0,0,0
3.216664,-0.2095006,0.3513164,0,0,0,0,0,0,0,0,0,0,0,0,0,1,0,0,0,0,0,-0.07055664,-0.8803711,-0.1265869,0,0,0,0,0,0
3.219997,-0.2398268,0.3646681,0,0,0,0,0,0,0,0,0,0,0,0,0,0,0,0,0,0,0,-0.05395508,-0.798584,-0.111084,0,0,0,0,0,0
3.22333,-0.2784623,0.3791113,0,0,0,0,0,0,0,0,0,0,0,0,0,0,0,0,0,0,0,-0.0625,-0.9846191,-0.09020996,0,0,0,0,0,0
3.226664,-0.3180994,0.3933488,0,0,0,0,0,0,0,0,0,0,0,0,0,0,0,0,0,0,0,-0.06018066,-1.052368,-0.08520508,0,0,0,0,0,0
3.229997,-0.3687693,0.4249627,0,0,0,0,0,0,0,0,0,0,0,0,0,0,0,0,0,0,0,-0.0378418,-1.01123,-0.04504395,0,0,0,0,0,0
3.23333,-0.4202233,0.4561398,0,0,0,0,0,0,0,0,0,0,0,0,0,0,0,0,0,0,0,-0.0177002,-0.9824219,-0.06433105,0,0,0,0,0,0
3.236664,-0.4722916,0.4869363,0,0,0,0,0,0,0,0,0,0,0,0,0,0,0,0,0,0,0,-0.01257324,-0.9558105,-0.09106445,0,0,0,0,0,0
3.239997,-0.5257355,0.5257355,0,0,0,0,0,0,0,0,0,0,0,0,0,0,0,0,0,0,0,-0.004760742,-0.9714355,-0.1062012,0,0,0,0,0,0
3.24333,-0.5786286,0.5559373,0,0,0,0,0,0,0,0,0,0,0,0,0,0,0,0,0,0,0,-0.0402832,-0.9610596,-0.1697998,0,0,0,0,0,0
3.246664,-0.6411288,0.5950598,0,0,0,0,0,0,0,0,0,0,0,0,0,0,0,0,0,0,0,-0.06518555,-0.9458008,-0.1480713,0,0,0,0,0,0
3.249997,-0.6867973,0.6324744,0,0,0,0,0,0,0,0,0,0,0,0,0,0,0,0,0.004248055,0.02198993,-0.01674233,-0.09973145,-0.9244385,-0.1467285,0,0,0,0,0,0
3.25333,-0.6867973,0.6324744,0,0,0,0,0,0,0,0,0,0,0,0,0,0,0,0,0,0,0,-0.09973145,-0.9244385,-0.1467285,0,0,0,0,0,0
3.256664,-0.7583424,0.6718992,0,0,0,0,0,0,0,0,0,0,0,0,0,0,0,0,0,0,0,-0.1101074,-0.8891602,-0.1407471,0,0,0,0,0,0
3.259997,-0.8208937,0.7019236,0,0,0,0,0,0,0,0,0,0,0,0,0,0,0,0,0,0,0,-0.1060791,-0.8966064,-0.1263428,0,0,0,0,0,0
3.26333,-0.8475996,0.712302,0,0,0,0,0,0,0,0,0,0,0,0,0,0,0,0,0,0,0,-0.03161621,-0.9190674,-0.1616211,0,0,0,0,0,0
3.266664,-0.856306,0.7129246,0,0,0,0,0,0,0,0,0,0,0,0,0,0,0,0,0,0,0,-0.004760742,-0.9428711,-0.1928711,0,0,0,0,0,0
3.269997,-0.856306,0.7129246,0,0,0,0,0,0,0,0,0,0,0,0,0,0,0,0,0,0,0,-0.07055664,-0.9233398,-0.1950684,0,0,0,0,0,0
3.27333,-0.865021,0.7135427,0,0,0,0,0,0,0,0,0,0,0,0,0,0,0,0,0,0,0,-0.1368408,-0.9239502,-0.1782227,0,0,0,0,0,0
3.276664,-0.8725189,0.6972183,0,0,0,0,0,0,0,0,0,0,0,0,0,0,0,0,0,0,0,-0.1644287,-0.9272461,-0.1673584,0,0,0,0,0,0
3.279997,-0.8894031,0.6899853,-0.003518183,-9.020981E-05,0,0,0,0,0,0,0,0,0,0,0,0,0,0,0,0,0,-0.1490479,-0.932373,-0.1883545,0,0,0,0,0,0
3.28333,-0.8963585,0.6652973,-0.09575775,-0.001623013,0,0,0,0,0,0,0,0,0,0,0,0,0,0,0,0,0,-0.09350586,-0.9530029,-0.2111816,0,0,0,0,0,0
3.286664,-0.9127472,0.6496847,-0.2065742,-0.007466538,0,0,0,0,0,0,0,0,0,0,0,0,0,0,0,0,0,-0.05737305,-0.9822998,-0.2299805,0,0,0,0,0,0
3.289997,-0.9292061,0.6340935,-0.3175621,-0.02077509,0,0,0,0,0,0,0,0,0,0,0,0,0,0,0,0,0,-0.04504395,-0.9779053,-0.2380371,0,0,0,0,0,0
