Timestamp, Left Stick X, LeftStickY, Right Stick X, Right Stick Y, D-Pad Up, D-Pad Right,D-Pad Down, D-Pad Left, Button North, Button East, Button South, Button West, L1, R1, L2, R2, L3, R3,Gyroscope X, Gyroscope Y, Gyroscope Z, Accelerometer X, Accelerometer Y, Accelerometer Z,Touch 1, Touch 2, Touch 1 Pos X, Touch 1 Pos Y, Touch 2 Pos X, Touch 2 Pos Y
0,0,0,0,0,0,0,0,0,0,0,0,0,0,0,0,0,0,0,-0.0584708,0.01524245,-0.01549223,0.00793457,-0.9849854,-0.211792,0,0,0,0,0,0
0.01,0,0,0,0,0,0,0,0,0,0,0,0,0,0,0,0,0,0,-0.04872768,0.01999084,-0.009245765,0.009277344,-0.9705811,-0.2080078,0,0,0,0,0,0
0.02,0,0,0,0,0,0,0,0,0,0,0,0,0,0,0,0,0,0,-0.01624388,0.01299511,-0.004248401,0.004150391,-0.956543,-0.2027588,0,0,0,0,0,0
0.03,0,0,0,0,0,0,0,0,0,0,0,0,0,0,0,0,0,0,-0.0007496566,0.01799176,-0.01124485,0.004516602,-0.9624023,-0.230957,0,0,0,0,0,0
0.04,0,0,0,0,0,0,0,0,0,0,0,0,0,0,0,0,0,0,-0.03848388,0.0244898,-0.04623062,-0.005737305,-0.960083,-0.2261963,0,0,0,0,0,0
0.05,0,0,0,0,0,0,0,0,0,0,0,0,0,0,0,0,0,0,-0.00349793,0.03523543,-0.06897147,-0.006225586,-0.9224854,-0.2381592,0,0,0,0,0,0
0.05999999,0,0,0,0,0,0,0,0,0,0,0,0,0,0,0,0,0,0,0.03233257,0.0394833,-0.08456046,-0.03540039,-0.9147949,-0.1680908,0,0,0,0,0,0
0.06999999,0,0,0,0,0,0,0,0,0,0,0,0,0,0,0,0,0,0,0.008496801,0.04848175,-0.08696726,0.0423584,-0.9886475,-0.1729736,0,0,0,0,0,0
0.07999999,0,0,0,0,0,0,0,0,0,0,0,0,0,0,0,0,0,0,0.009822382,0.06060622,-0.145086,0.04577637,-0.9750977,-0.2856445,0,0,0,0,0,0
0.08999999,0,0,0,0,0,0,0,0,0,0,0,0,0,0,0,0,0,0,0.05009377,0.04353933,-0.1410362,0.08032227,-0.9504395,-0.2977295,0,0,0,0,0,0
0.09999999,0,0,0,0,0,0,0,0,0,0,0,0,0,0,0,0,0,0,0.03673318,0.01349382,-0.08146269,0.05456543,-0.9594727,-0.2374268,0,0,0,0,0,0
0.11,0,0,0,0,0,0,0,0,0,0,0,0,0,0,0,0,0,0,0.03098328,0.01024447,-0.08345497,0.04797363,-0.9541016,-0.2038574,0,0,0,0,0,0
0.12,0,0,0,0,0,0,0,0,0,0,0,0,0,0,0,0,0,0,0.06722203,0.0254894,-0.1536857,0.05578613,-0.996582,-0.1956787,0,0,0,0,0,0
0.13,0,0,0,0,0,0,0,0,0,0,0,0,0,0,0,0,0,0,0.08013883,0.02506636,-0.1155858,0.07177734,-1.009399,-0.2075195,0,0,0,0,0,0
0.14,0,0,0,0,0,0,0,0,0,0,0,0,0,0,0,0,0,0,0.04590517,0.01084192,-0.03298713,0.0793457,-1.037231,-0.2077637,0,0,0,0,0,0
0.15,0,0,0,0,0,0,0,0,0,0,0,0,0,0,0,0,0,0,0.04244498,0.007612415,-0.01384075,0.07629395,-1.030518,-0.2011719,0,0,0,0,0,0
0.16,0,0,0,0,0,0,0,0,0,0,0,0,0,0,0,0,0,0,0.04013819,0.003460189,0.001153396,0.07006836,-1.015991,-0.2044678,0,0,0,0,0,0
0.17,0,0,0,0,0,0,0,0,0,0,0,0,0,0,0,0,0,0,0.1059505,-0.004863124,0.03158141,0.06469727,-0.9942627,-0.2076416,0,0,0,0,0,0
0.18,0,0,0,0,0,0,0,0,0,0,0,0,0,0,0,0,0,0,0.1404978,-0.01643524,0.03627304,0.06604004,-0.9853516,-0.2109375,0,0,0,0,0,0
0.19,0,0,0,0,0,0,0,0,0,0,0,0,0,0,0,0,0,0,0.1599267,-0.02873684,0.03248512,0.05932617,-0.9798584,-0.2015381,0,0,0,0,0,0
0.2,0,0,0,0,0,0,0,0,0,0,0,0,0,0,0,0,0,0,0.1611827,-0.038484,0.03123698,0.05627441,-0.9812012,-0.1964111,0,0,0,0,0,0
0.21,0,0,0,0,0,0,0,0,0,0,0,0,0,0,0,0,0,0,0.08346178,-0.02523844,0.01949107,0.05041504,-0.9859619,-0.1893311,0,0,0,0,0,0
0.22,0,0,0,0,0,0,0,0,0,0,0,0,0,0,0,0,0,0,0.1689281,-0.05810984,0.05251598,0.04125977,-0.9996338,-0.1784668,0,0,0,0,0,0
0.23,0,0,0,0,0,0,0,0,0,0,0,0,0,0,0,0,0,0,0.1586826,-0.07148867,0.06647161,0.04626465,-0.9902344,-0.1929932,0,0,0,0,0,0
0.24,0,0,0,0,0,0,0,0,0,0,0,0,0,0,0,0,0,0,0.1409017,-0.0916339,0.07992743,0.05432129,-0.9866943,-0.2130127,0,0,0,0,0,0
0.25,0,0,0,0,0,0,0,0,0,0,0,0,0,0,0,0,0,0,0.1356879,-0.1204448,0.1059515,0.04882813,-1.001953,-0.2174072,0,0,0,0,0,0
0.26,0,0,0,0,0,0,0,0,0,0,0,0,0,0,0,0,0,0,0.1285607,-0.1427083,0.1314055,0.05944824,-0.9945068,-0.2241211,0,0,0,0,0,0
0.27,0,0,0,0,0,0,0,0,0,0,0,0,0,0,0,0,0,0,0.06522013,-0.09270754,0.09020869,0.05053711,-1.016357,-0.2233887,0,0,0,0,0,0
0.28,0,0,0,0,0,0,0,0,0,0,0,0,0,0,0,0,0,0,0.05947276,-0.1079506,0.1154471,0.04528809,-1.032593,-0.2196045,0,0,0,0,0,0
0.29,-0.004317139,0.004636928,0,0,0,0,0,0,0,0,0,0,0,0,0,0,0,0,0.09245328,-0.2593715,0.292605,0.03491211,-1.042847,-0.1929932,0,0,0,0,0,0
0.3,-0.1786224,0.1626264,-0.04959631,0,0,0,0,0,0,0,0,0,0,0,0,0,0,0,0.08400281,-0.2910494,0.3333199,0.02429199,-1.029297,-0.1777344,0,0,0,0,0,0
0.31,-0.3296348,0.270888,-0.1708072,0.02049686,0,0,0,0,0,0,0,0,0,0,0,0,0,0,0.09245765,-0.3313482,0.3680814,-0.002685547,-1.049316,-0.1572266,0,0,0,0,0,0
0.32,-0.4890311,0.3533874,-0.3285208,0.0512372,0,0,0,0,0,0,0,0,0,0,0,0,0,0,0.02349116,-0.1784328,0.1851803,-0.02148438,-1.049194,-0.1428223,0,0,0,0,0,0
0.33,-0.673621,0.3951409,-0.5242536,0.114572,0,0,0,0,0,0,0,0,0,0,0,0,0,0,-0.0119953,-0.3743439,0.3456056,-0.03637695,-1.036621,-0.1416016,0,0,0,0,0,0
0.3399999,-0.7709212,0.40272,-0.6177847,0.1553494,0,0,0,0,0,0,0,0,0,0,0,0,0,0,-0.03235182,-0.3662289,0.31971,-0.0324707,-1.025391,-0.1447754,0,0,0,0,0,0
0.3499999,-1,0.4253754,-0.821747,0.2255027,0,0,0,0,0,0,0,0,0,0,0,0,0,0,-0.05147818,-0.3733796,0.2827453,-0.04577637,-0.9775391,-0.1345215,0,0,0,0,0,0
0.3599999,-1,0.3686016,-0.9148757,0.2686231,0,0,0,0,0,0,0,0,0,0,0,0,0,0,-0.04280868,-0.3741293,0.2701926,-0.05883789,-0.9648438,-0.1317139,0,0,0,0,0,0
0.3699999,-1,0.2882255,-0.9980505,0.2958648,0,0,0,0,0,0,0,0,0,0,0,0,0,0,-0.02698544,-0.190897,0.1161873,-0.07751465,-0.9628906,-0.1157227,0,0,0,0,0,0
0.3799999,-1,0.1769445,-1,0.3202776,0,0,0,0,0,0,0,0,0,0,0,0,0,0,-0.05122817,-0.3845895,0.1951686,-0.01867676,-0.9682617,-0.1782227,0,0,0,0,0,0
0.3899999,-1,0.09026043,-1,0.3202776,0,0,0,0,0,0,0,0,0,0,0,0,0,0,0.009496363,-0.3658471,0.1796748,-0.04772949,-0.9422607,-0.1480713,0,0,0,0,0,0
0.3999999,-1,-0.05099206,-1,0.3202776,0,0,0,0,0,0,0,0,0,0,0,0,0,0,0.02985308,-0.5043515,0.2007638,-0.05432129,-0.9713135,-0.1243896,0,0,0,0,0,0
0.4099999,-1,-0.1374799,-1,0.3202776,0,0,0,0,0,0,0,0,0,0,0,0,0,0,-0.007612415,-0.1490188,0.04567449,-0.04907227,-1.017578,-0.1212158,0,0,0,0,0,0
0.4199999,-1,-0.2244794,-1,0.3202776,0,0,0,0,0,0,0,0,0,0,0,0,0,0,-0.07696561,-0.2971136,0.09870493,-0.06054688,-1.059814,-0.1109619,0,0,0,0,0,0
0.4299999,-1,-0.2802319,-1,0.3202776,0,0,0,0,0,0,0,0,0,0,0,0,0,0,-0.1449391,-0.2728863,0.1114534,-0.0715332,-1.06543,-0.09631348,0,0,0,0,0,0
0.4399998,-1,-0.336352,-1,0.3042357,0,0,0,0,0,0,0,0,0,0,0,0,0,0,-0.1914203,-0.2571426,0.1294461,-0.08459473,-1.055908,-0.1156006,0,0,0,0,0,0
0.4499998,-0.9956806,-0.4244535,-1,0.2483314,0,0,0,0,0,0,0,0,0,0,0,0,0,0,-0.196098,-0.2231069,0.1608038,-0.09802246,-1.014771,-0.1148682,0,0,0,0,0,0
0.4599998,-0.9726233,-0.4882966,-1,0.2165419,0,0,0,0,0,0,0,0,0,0,0,0,0,0,-0.200357,-0.206989,0.1903996,-0.1104736,-1.01062,-0.1035156,0,0,0,0,0,0
0.4699998,-0.9412041,-0.5520143,-1,0.1769445,0,0,0,0,0,0,0,0,0,0,0,0,0,0,-0.2004531,-0.1923027,0.2084883,-0.1115723,-0.9963379,-0.1264648,0,0,0,0,0,0
0.4799998,-0.8775876,-0.6472705,-1,0.1059862,0,0,0,0,0,0,0,0,0,0,0,0,0,0,-0.1994169,-0.1809245,0.2259057,-0.1247559,-1.000488,-0.1309814,0,0,0,0,0,0
0.4899998,-0.82217,-0.7189022,-1,0.04314433,0,0,0,0,0,0,0,0,0,0,0,0,0,0,-0.2189089,-0.1811744,0.222907,-0.1429443,-1.042969,-0.1286621,0,0,0,0,0,0
0.4999998,-0.766288,-0.7742289,-1,-0.01176485,0,0,0,0,0,0,0,0,0,0,0,0,0,0,-0.1334498,-0.09021603,0.1049605,-0.1577148,-1.036743,-0.1289063,0,0,0,0,0,0
0.5099998,-0.6953552,-0.8463467,-1,-0.09026043,0,0,0,0,0,0,0,0,0,0,0,0,0,0,-0.297982,-0.1691852,0.1808346,-0.1607666,-1.012207,-0.1326904,0,0,0,0,0,0
0.5199998,-0.6233535,-0.893341,-1,-0.1374799,0,0,0,0,0,0,0,0,0,0,0,0,0,0,-0.3361073,-0.1660255,0.1434772,-0.1700439,-1.006958,-0.1320801,0,0,0,0,0,0
0.5299998,-0.5520143,-0.9412041,-1,-0.1848525,0,0,0,0,0,0,0,0,0,0,0,0,0,0,-0.1817752,-0.08189113,0.03713936,-0.1624756,-1.009155,-0.1635742,0,0,0,0,0,0
0.5399998,-0.4167845,-1,-1,-0.2722459,0,0,0,0,0,0,0,0,0,0,0,0,0,0,-0.4313196,-0.165681,-0.02798763,-0.1914063,-1.004028,-0.1678467,0,0,0,0,0,0
0.5499998,-0.3122526,-1,-1,-0.3444016,0,0,0,0,0,0,0,0,0,0,0,0,0,0,-0.5052897,-0.1391917,-0.1406922,-0.2163086,-0.9564209,-0.1881104,0,0,0,0,0,0
0.5599998,-0.2324234,-1,-1,-0.3928797,0,0,0,0,0,0,0,0,0,0,0,0,0,0,-0.2763734,-0.04597894,-0.150681,-0.2296143,-0.8856201,-0.2128906,0,0,0,0,0,0
0.5699998,-0.113854,-1,-1,-0.4493711,0,0,0,0,0,0,0,0,0,0,0,0,0,0,-0.4922943,-0.0289521,-0.4366388,-0.229126,-0.8427734,-0.2406006,0,0,0,0,0,0
0.5799997,-0.035298,-1,-0.9815939,-0.4888099,0,0,0,0,0,0,0,0,0,0,0,0,0,0,-0.4138043,0.03535073,-0.5464796,-0.223999,-0.8605957,-0.255127,0,0,0,0,0,0
0.5899997,0.06669273,-1,-0.9501057,-0.552572,0,0,0,0,0,0,0,0,0,0,0,0,0,0,-0.5003532,0.1741404,-0.9827137,-0.1824951,-0.8885498,-0.2593994,0,0,0,0,0,0
0.5999997,0.1296006,-1,-0.919205,-0.6167826,0,0,0,0,0,0,0,0,0,0,0,0,0,0,-0.2721361,0.2064144,-0.7396917,-0.1616211,-0.8924561,-0.2706299,0,0,0,0,0,0
0.6099997,0.2006854,-1,-0.8700544,-0.6634662,0,0,0,0,0,0,0,0,0,0,0,0,0,0,-0.108959,0.1444456,-0.385105,-0.1307373,-0.9136963,-0.2907715,0,0,0,0,0,0
0.6199997,0.2802319,-1,-0.8401566,-0.7286666,0,0,0,0,0,0,0,0,0,0,0,0,0,0,-0.09596387,0.167437,-0.3863545,-0.1037598,-0.9492188,-0.3050537,0,0,0,0,0,0
0.6299997,0.3605264,-1,-0.7675676,-0.7914298,0,0,0,0,0,0,0,0,0,0,0,0,0,0,-0.1766749,0.3577513,-0.7262682,-0.0904541,-0.9822998,-0.2891846,0,0,0,0,0,0
0.6399997,0.4235087,-0.9776322,-0.7365521,-0.8321048,0,0,0,0,0,0,0,0,0,0,0,0,0,0,-0.1773744,0.3822382,-0.6965793,-0.05834961,-0.9914551,-0.2999268,0,0,0,0,0,0
0.6499997,0.4692967,-0.9267623,-0.6875248,-0.8544383,0,0,0,0,0,0,0,0,0,0,0,0,0,0,-0.1677555,0.3903916,-0.6664664,-0.05200195,-1.008545,-0.3023682,0,0,0,0,0,0
0.6599997,0.507966,-0.8938627,-0.6544335,-0.8606791,0,0,0,0,0,0,0,0,0,0,0,0,0,0,-0.0812128,0.2064055,-0.3315981,-0.02526855,-1.01416,-0.3161621,0,0,0,0,0,0
0.6699997,0.5537423,-0.8443588,-0.6048162,-0.8657174,0,0,0,0,0,0,0,0,0,0,0,0,0,0,-0.1584338,0.4078299,-0.611995,0.0246582,-1.019531,-0.3103027,0,0,0,0,0,0
0.6799996,0.5933083,-0.8212016,-0.5632638,-0.8626207,0,0,0,0,0,0,0,0,0,0,0,0,0,0,-0.1681799,0.4015824,-0.5547682,0.04211426,-0.9980469,-0.3250732,0,0,0,0,0,0
0.6899996,0.6324674,-0.7896022,-0.5302348,-0.8601587,0,0,0,0,0,0,0,0,0,0,0,0,0,0,-0.07996337,0.1956604,-0.246637,0.05932617,-0.9620361,-0.3306885,0,0,0,0,0,0
0.6999996,0.6874863,-0.7424852,-0.4647644,-0.8553228,0,0,0,0,0,0,0,0,0,0,0,0,0,0,-0.1174695,0.3688623,-0.4036365,0.06787109,-0.9550781,-0.3347168,0,0,0,0,0,0
0.7099996,0.7280581,-0.7201872,-0.4150303,-0.8339394,0,0,0,0,0,0,0,0,0,0,0,0,0,0,-0.1007082,0.378842,-0.3723451,0.07897949,-0.9500732,-0.3358154,0,0,0,0,0,0
0.7199996,0.7948961,-0.6999831,-0.3318689,-0.7743608,0,0,0,0,0,0,0,0,0,0,0,0,0,0,-0.1132611,0.5438353,-0.462887,0.07678223,-0.947876,-0.3392334,0,0,0,0,0,0
0.7299996,0.8794271,-0.6725031,-0.1497577,-0.6538203,0,0,0,0,0,0,0,0,0,0,0,0,0,0,-0.01399359,0.1791679,-0.1191954,0.07641602,-0.9383545,-0.3393555,0,0,0,0,0,0
0.7399996,0.9186182,-0.6084355,0.03012022,-0.46519,0,0,0,0,0,0,0,0,0,0,0,0,0,0,-0.03023745,0.3508535,-0.2256558,0.08239746,-0.9379883,-0.3347168,0,0,0,0,0,0
0.7499996,0.9417656,-0.5602909,0.1148987,-0.344696,0,0,0,0,0,0,0,0,0,0,0,0,0,0,-0.0364848,0.340108,-0.2216574,0.09985352,-0.9326172,-0.342041,0,0,0,0,0,0
0.7599996,0.9568346,-0.5201051,0.1818604,-0.3051556,0,0,0,0,0,0,0,0,0,0,0,0,0,0,-0.01649245,0.1639249,-0.09920457,0.130127,-0.9310303,-0.3387451,0,0,0,0,0,0
0.7699996,0.9795809,-0.4560802,0.24413,-0.3011993,0,0,0,0,0,0,0,0,0,0,0,0,0,0,-0.03723437,0.3223655,-0.1649314,0.1427002,-0.9499512,-0.3377686,0,0,0,0,0,0
0.7799996,1,-0.4005468,0.2822006,-0.3081501,0,0,0,0,0,0,0,0,0,0,0,0,0,0,-0.05370808,0.3096951,-0.127138,0.1481934,-0.940918,-0.3361816,0,0,0,0,0,0
0.7899995,1,-0.3444016,0.3294181,-0.3161083,0,0,0,0,0,0,0,0,0,0,0,0,0,0,-0.03398444,0.1576778,-0.04822791,0.1485596,-0.9227295,-0.3353271,0,0,0,0,0,0
0.7999995,1,-0.2562958,0.4027953,-0.327056,0,0,0,0,0,0,0,0,0,0,0,0,0,0,-0.05447739,0.3038734,-0.05972534,0.1628418,-0.9111328,-0.3358154,0,0,0,0,0,0
0.8099995,1,-0.2006854,0.4615235,-0.3346926,0,0,0,0,0,0,0,0,0,0,0,0,0,0,-0.009497197,0.1429578,-0.009747124,0.1658936,-0.8980713,-0.3320313,0,0,0,0,0,0
0.8199995,1,-0.113854,0.573355,-0.3469346,0,0,0,0,0,0,0,0,0,0,0,0,0,0,0.02429753,0.2588898,0.01401341,0.1700439,-0.8986816,-0.3277588,0,0,0,0,0,0
0.8299995,1,-0.01176485,0.6685269,-0.3398657,0,0,0,0,0,0,0,0,0,0,0,0,0,0,0.05322379,0.2473762,0.04697688,0.1732178,-0.9025879,-0.3131104,0,0,0,0,0,0
0.8399995,1,0.01176485,0.677398,-0.3405702,0,0,0,0,0,0,0,0,0,0,0,0,0,0,0.02837104,0.1091017,0.02514182,0.1768799,-0.9024658,-0.3167725,0,0,0,0,0,0
0.8499995,1,0.1532514,0.7116699,-0.3275941,0,0,0,0,0,0,0,0,0,0,0,0,0,0,0.07371624,0.2049062,0.0812128,0.178833,-0.9165039,-0.2969971,0,0,0,0,0,0
0.8599995,1,0.2403741,0.7206043,-0.3282334,0,0,0,0,0,0,0,0,0,0,0,0,0,0,0.07521859,0.1929194,0.09546027,0.1680908,-0.9155273,-0.2937012,0,0,0,0,0,0
0.8699995,1,0.3042357,0.7116699,-0.3275941,0,0,0,0,0,0,0,0,0,0,0,0,0,0,0.03448421,0.08920915,0.05497482,0.1593018,-0.9158936,-0.2905273,0,0,0,0,0,0
0.8799995,1,0.3605264,0.7206043,-0.3282334,0,0,0,0,0,0,0,0,0,0,0,0,0,0,0.02798946,0.08171923,0.05647873,0.1550293,-0.9124756,-0.2813721,0,0,0,0,0,0
0.8899994,1,0.4253754,0.7384956,-0.3294826,0,0,0,0,0,0,0,0,0,0,0,0,0,0,0.05247804,0.1476884,0.117451,0.1568604,-0.9075928,-0.2745361,0,0,0,0,0,0
0.8999994,1,0.4739094,0.7653847,-0.3312859,0,0,0,0,0,0,0,0,0,0,0,0,0,0,0.06718284,0.1342698,0.1160468,0.1533203,-0.8935547,-0.2734375,0,0,0,0,0,0
0.9099994,0.9836607,0.5216986,0.7917736,-0.3251244,0,0,0,0,0,0,0,0,0,0,0,0,0,0,0.04398344,0.06522544,0.0592277,0.1455078,-0.8959961,-0.2606201,0,0,0,0,0,0
0.9199994,0.9517779,0.5774385,0.8524981,-0.2893093,0,0,0,0,0,0,0,0,0,0,0,0,0,0,0.09995834,0.1201998,0.1072052,0.1499023,-0.9038086,-0.2491455,0,0,0,0,0,0
0.9299994,0.9363098,0.6095974,0.9046179,-0.2445963,0,0,0,0,0,0,0,0,0,0,0,0,0,0,0.0484778,0.05447505,0.04797802,0.157959,-0.9101563,-0.2493896,0,0,0,0,0,0
0.9399994,0.9286237,0.625725,0.9654732,-0.1602607,0,0,0,0,0,0,0,0,0,0,0,0,0,0,0.08984637,0.09930399,0.08342611,0.1746826,-0.9083252,-0.2652588,0,0,0,0,0,0
0.9499994,0.9203799,0.6335082,0.9920828,-0.1215596,0,0,0,0,0,0,0,0,0,0,0,0,0,0,0.1039524,0.09270754,0.09020868,0.2036133,-0.9232178,-0.2753906,0,0,0,0,0,0
0.9599994,0.9121541,0.6412961,0.9913776,-0.08228827,0,0,0,0,0,0,0,0,0,0,0,0,0,0,0.05647413,0.03948192,0.05172631,0.2231445,-0.9510498,-0.2701416,0,0,0,0,0,0
0.9699994,0.9121541,0.6412961,0.9909394,-0.04308432,0,0,0,0,0,0,0,0,0,0,0,0,0,0,0.1054559,0.07097034,0.1162016,0.2445068,-0.9743652,-0.2727051,0,0,0,0,0,0
0.9799994,0.9039459,0.649089,0.9908403,-0.02741455,0,0,0,0,0,0,0,0,0,0,0,0,0,0,0.04848569,0.03374005,0.06348127,0.2429199,-0.9696045,-0.2734375,0,0,0,0,0,0
0.9899994,0.8900082,0.698437,1,-0.01176485,0,0,0,0,0,0,0,0,0,0,0,0,0,0,0.101538,0.06297588,0.1351982,0.2346191,-0.9698486,-0.2805176,0,0,0,0,0,0
0.9999993,0.8581596,0.7384164,1,0,0,0,0,0,0,0,0,0,0,0,0,0,0,0,0.1236985,0.06147435,0.1586839,0.2331543,-0.9777832,-0.2767334,0,0,0,0,0,0
1.009999,0.826566,0.7786492,1,0.01960851,0,0,0,0,0,0,0,0,0,0,0,0,0,0,0.07221692,0.02723753,0.09145811,0.223999,-0.9837646,-0.2856445,0,0,0,0,0,0
1.019999,0.7951917,0.8191673,1,0.04314433,0,0,0,0,0,0,0,0,0,0,0,0,0,0,0.1669302,0.03798429,0.2139105,0.2072754,-1.006104,-0.2893066,0,0,0,0,0,0
1.029999,0.7627706,0.8426419,1,0.05884144,0,0,0,0,0,0,0,0,0,0,0,0,0,0,0.1746842,0.01499399,0.2406597,0.1984863,-1.027466,-0.293457,0,0,0,0,0,0
1.039999,0.7475448,0.8674718,1,0.09812176,0,0,0,0,0,0,0,0,0,0,0,0,0,0,0.08146932,-0.007497177,0.1351991,0.1920166,-1.057007,-0.3000488,0,0,0,0,0,0
1.049999,0.7153703,0.8912154,1,0.1217254,0,0,0,0,0,0,0,0,0,0,0,0,0,0,0.1160663,-0.04619166,0.2867817,0.177124,-1.069092,-0.2895508,0,0,0,0,0,0
1.059999,0.6833416,0.9151183,1,0.1453634,0,0,0,0,0,0,0,0,0,0,0,0,0,0,0.03848238,-0.04073134,0.1576778,0.1650391,-1.063232,-0.2886963,0,0,0,0,0,0
1.069999,0.6358177,0.9557259,1,0.1927661,0,0,0,0,0,0,0,0,0,0,0,0,0,0,0.04423141,-0.1129531,0.318867,0.1607666,-1.057373,-0.2719727,0,0,0,0,0,0
1.079999,0.5790934,0.9784681,1,0.2562958,0,0,0,0,0,0,0,0,0,0,0,0,0,0,0.02498943,-0.1366931,0.3166178,0.1529541,-1.055542,-0.2601318,0,0,0,0,0,0
1.089999,0.5232409,1,1,0.3444016,0,0,0,0,0,0,0,0,0,0,0,0,0,0,0.001749341,-0.07996988,0.1526925,0.1516113,-1.041748,-0.2674561,0,0,0,0,0,0
1.099999,0.4498426,1,1,0.433522,0,0,0,0,0,0,0,0,0,0,0,0,0,0,0.0004998525,-0.08797404,0.1449572,0.1414795,-1.015747,-0.2747803,0,0,0,0,0,0
1.109999,0.3605264,1,0.9763092,0.5459362,0,0,0,0,0,0,0,0,0,0,0,0,0,0,0.005555365,-0.1901689,0.2695969,0.1287842,-1.016602,-0.2696533,0,0,0,0,0,0
1.119999,0.2962267,1,0.9292061,0.6340935,0,0,0,0,0,0,0,0,0,0,0,0,0,0,-0.004248054,-0.216151,0.2883679,0.1168213,-1.022827,-0.2781982,0,0,0,0,0,0
1.129999,0.2324234,1,0.8743551,0.7226405,0,0,0,0,0,0,0,0,0,0,0,0,0,0,-0.01174497,-0.2250583,0.299815,0.1182861,-1.012329,-0.2919922,0,0,0,0,0,0
1.139999,0.1690417,1,0.8191673,0.7951917,0,0,0,0,0,0,0,0,0,0,0,0,0,0,-0.004248055,-0.1294407,0.1744201,0.1257324,-1.004517,-0.2875977,0,0,0,0,0,0
1.149999,0.1059862,1,0.7627706,0.8426419,0,0,0,0,0,0,0,0,0,0,0,0,0,0,0.002499059,-0.1349492,0.188429,0.1159668,-0.9869385,-0.2792969,0,0,0,0,0,0
1.159999,0.02745281,1,0.6990393,0.8987648,0,0,0,0,0,0,0,0,0,0,0,0,0,0,0.01824238,-0.2798833,0.3910869,0.09802246,-0.9849854,-0.2669678,0,0,0,0,0,0
1.169999,-0.04314433,1,0.6430523,0.9386168,0,0,0,0,0,0,0,0,0,0,0,0,0,0,0.008995879,-0.1449336,0.1971597,0.09204102,-0.9592285,-0.241333,0,0,0,0,0,0
1.179999,-0.113854,1,0.5785473,0.9695654,0,0,0,0,0,0,0,0,0,0,0,0,0,0,0.0127452,-0.1439458,0.1954264,0.07556152,-0.9527588,-0.2332764,0,0,0,0,0,0
1.189999,-0.2086106,1,0.4662001,1,0,0,0,0,0,0,0,0,0,0,0,0,0,0,0.02472022,-0.2760748,0.3552526,0.05908203,-0.9431152,-0.2374268,0,0,0,0,0,0
1.199999,-0.2722459,1,0.3686016,1,0,0,0,0,0,0,0,0,0,0,0,0,0,0,0.01355205,-0.2685205,0.3328009,0.03735352,-0.9572754,-0.2329102,0,0,0,0,0,0
1.209999,-0.336352,1,0.2403741,1,0,0,0,0,0,0,0,0,0,0,0,0,0,0,-0.01124485,-0.1314398,0.15293,0.03320313,-0.9671631,-0.2296143,0,0,0,0,0,0
1.219999,-0.4172379,1,0.06660035,0.9911698,0,0,0,0,0,0,0,0,0,0,0,0,0,0,-0.05597251,-0.2401298,0.2643673,0.02282715,-0.9412842,-0.2471924,0,0,0,0,0,0
1.229999,-0.4825947,1,-0.07343717,0.9083018,0,0,0,0,0,0,0,0,0,0,0,0,0,0,-0.06697205,-0.2196582,0.2224069,0.02478027,-0.913208,-0.2406006,0,0,0,0,0,0
1.239999,-0.531496,1,-0.1945639,0.8202203,0,0,0,0,0,0,0,0,0,0,0,0,0,0,-0.03073842,-0.09646368,0.08971623,0.02429199,-0.8994141,-0.2404785,0,0,0,0,0,0
1.249999,-0.579634,0.9873765,-0.3288628,0.7295463,0,0,0,0,0,0,0,0,0,0,0,0,0,0,-0.04915226,-0.1596245,0.1333857,0.01220703,-0.8868408,-0.2496338,0,0,0,0,0,0
1.259999,-0.6196507,0.9634567,-0.3879218,0.6816879,0,0,0,0,0,0,0,0,0,0,0,0,0,0,-0.02937227,-0.1365766,0.09851599,-0.00402832,-0.8861084,-0.260498,0,0,0,0,0,0
1.269999,-0.6598403,0.9397725,-0.4409313,0.6519754,0,0,0,0,0,0,0,0,0,0,0,0,0,0,-0.007035127,-0.1130048,0.06464278,-0.0177002,-0.8798828,-0.263916,0,0,0,0,0,0
1.279999,-0.6996371,0.9075292,-0.4946542,0.6230377,0,0,0,0,0,0,0,0,0,0,0,0,0,0,0.0277363,-0.09270369,0.03198393,-0.02612305,-0.9034424,-0.2642822,0,0,0,0,0,0
1.289999,-0.731741,0.8836871,-0.5567653,0.5870655,0,0,0,0,0,0,0,0,0,0,0,0,0,0,0.03973343,-0.07921685,0.01874211,-0.03100586,-0.9278564,-0.2570801,0,0,0,0,0,0
1.299999,-0.7554604,0.8593862,-0.6047969,0.5667594,0,0,0,0,0,0,0,0,0,0,0,0,0,0,0.01824165,-0.03273501,0.005247597,-0.04125977,-0.9466553,-0.253418,0,0,0,0,0,0
1.309999,-0.7958074,0.8277996,-0.6543316,0.5548427,0,0,0,0,0,0,0,0,0,0,0,0,0,0,0.0326592,-0.05547642,0.0008843043,-0.04858398,-0.9429932,-0.2437744,0,0,0,0,0,0
1.319999,-0.8197833,0.8037875,-0.6785807,0.5405643,0,0,0,0,0,0,0,0,0,0,0,0,0,0,0.03025633,-0.05261222,-0.01236026,-0.04821777,-0.9337158,-0.2380371,0,0,0,0,0,0
1.329999,-0.8438712,0.7798811,-0.7211155,0.5360163,0,0,0,0,0,0,0,0,0,0,0,0,0,0,0.01949107,-0.02673776,-0.01099496,-0.05810547,-0.9459229,-0.2368164,0,0,0,0,0,0
1.339999,-0.8587738,0.7469335,-0.7552578,0.530617,0,0,0,0,0,0,0,0,0,0,0,0,0,0,0.05547677,-0.05847554,-0.01724286,-0.06030273,-0.9702148,-0.244873,0,0,0,0,0,0
1.349999,-0.8836871,0.731741,-0.7808405,0.5244451,0,0,0,0,0,0,0,0,0,0,0,0,0,0,0.0627238,-0.06422325,-0.008746279,-0.06787109,-0.9882813,-0.2404785,0,0,0,0,0,0
1.359999,-0.9075292,0.6996371,-0.8072037,0.5264372,0,0,0,0,0,0,0,0,0,0,0,0,0,0,0.05182189,-0.06925608,-0.0004805444,-0.0637207,-0.99646,-0.2354736,0,0,0,0,0,0
1.369999,-0.9233196,0.6755022,-0.8336449,0.5283665,0,0,0,0,0,0,0,0,0,0,0,0,0,0,0.01974096,-0.03898215,-0.0004997711,-0.06408691,-0.9958496,-0.2298584,0,0,0,0,0,0
1.379999,-0.9386168,0.6430523,-0.851313,0.5296187,0,0,0,0,0,0,0,0,0,0,0,0,0,0,0.0182357,-0.04021847,-0.001498825,-0.06115723,-0.989502,-0.2307129,0,0,0,0,0,0
1.389999,-0.962338,0.6029587,-0.8601587,0.5302348,0,0,0,0,0,0,0,0,0,0,0,0,0,0,0.07836957,-0.1202552,-0.005824376,-0.06018066,-0.9746094,-0.2352295,0,0,0,0,0,0
1.399999,-0.9773847,0.5624949,-0.8607723,0.538474,0,0,0,0,0,0,0,0,0,0,0,0,0,0,0.04397986,-0.04048146,-0.005997253,-0.06774902,-0.9822998,-0.2236328,0,0,0,0,0,0
1.409999,-0.9931315,0.5304679,-0.8657174,0.6048162,0,0,0,0,0,0,0,0,0,0,0,0,0,0,0.08200352,-0.07973534,-0.01420547,-0.06103516,-0.9979248,-0.2365723,0,0,0,0,0,0
1.419999,-1,0.5062566,-0.8688172,0.646654,0,0,0,0,0,0,0,0,0,0,0,0,0,0,0.06289655,-0.08431026,-0.01322515,-0.04736328,-1.015747,-0.232666,0,0,0,0,0,0
1.429999,-1,0.4743927,-0.8775876,0.6472705,0,0,0,0,0,0,0,0,0,0,0,0,0,0,0.02306589,-0.04267189,0.0004613178,-0.01818848,-1.010864,-0.2556152,0,0,0,0,0,0
1.439999,-1,0.4416777,-0.8775876,0.6472705,0,0,0,0,0,0,0,0,0,0,0,0,0,0,0.04415241,-0.08724765,0.02118241,-0.03100586,-0.9962158,-0.2436523,0,0,0,0,0,0
1.449999,-1,0.4091095,-0.8775876,0.6472705,0,0,0,0,0,0,0,0,0,0,0,0,0,0,0.01974096,-0.05072676,0.01074508,-0.03039551,-0.9750977,-0.2506104,0,0,0,0,0,0
1.459999,-1,0.3766855,-0.8775876,0.6472705,0,0,0,0,0,0,0,0,0,0,0,0,0,0,0.02874386,-0.0584875,0.006498612,-0.03808594,-0.9727783,-0.2579346,0,0,0,0,0,0
1.469999,-1,0.3524597,-0.8775876,0.6472705,0,0,0,0,0,0,0,0,0,0,0,0,0,0,0.06196897,-0.1246875,0.01199408,-0.0324707,-0.9671631,-0.2524414,0,0,0,0,0,0
1.479999,-1,0.2165419,-0.886366,0.6478819,0,0,0,0,0,0,0,0,0,0,0,0,0,0,0.05415015,-0.1402672,0.01939551,-0.02990723,-0.9829102,-0.2349854,0,0,0,0,0,0
1.489999,-1,0.1296006,-0.9115608,0.6329178,0,0,0,0,0,0,0,0,0,0,0,0,0,0,0.01845271,-0.07265756,0.01476217,-0.02966309,-0.9876709,-0.2491455,0,0,0,0,0,0
1.499999,-0.9538653,-0.003893328,-0.9517779,0.5774385,0,0,0,0,0,0,0,0,0,0,0,0,0,0,0.0309086,-0.1561962,0.04380645,-0.04003906,-1.014038,-0.2182617,0,0,0,0,0,0
1.509999,-0.9090564,-0.1121814,-0.9673843,0.5453978,0,0,0,0,0,0,0,0,0,0,0,0,0,0,0.002691326,-0.1629883,0.05636052,-0.07165527,-1.031494,-0.2131348,0,0,0,0,0,0
1.519999,-0.8673628,-0.2274418,-0.9915852,0.5057483,0,0,0,0,0,0,0,0,0,0,0,0,0,0,-0.02524151,-0.1819388,0.09096931,-0.08776855,-1.003662,-0.2093506,0,0,0,0,0,0
1.529999,-0.8439005,-0.2967139,-1,0.481615,0,0,0,0,0,0,0,0,0,0,0,0,0,0,-0.01747339,-0.1957051,0.1062816,-0.09802246,-0.9681396,-0.2209473,0,0,0,0,0,0
1.539999,-0.8474187,-0.3521238,-1,0.4657205,0,0,0,0,0,0,0,0,0,0,0,0,0,0,-0.001499313,-0.1146975,0.05897299,-0.09863281,-0.9526367,-0.2310791,0,0,0,0,0,0
1.549999,-0.8501311,-0.3920696,-1,0.4416777,0,0,0,0,0,0,0,0,0,0,0,0,0,0,0.01649324,-0.2533944,0.1102039,-0.0904541,-0.9475098,-0.2324219,0,0,0,0,0,0
1.559999,-0.8523965,-0.4242521,-1,0.433522,0,0,0,0,0,0,0,0,0,0,0,0,0,0,0.01124577,-0.1399473,0.0464825,-0.09277344,-0.9620361,-0.2203369,0,0,0,0,0,0
1.569999,-0.8642306,-0.4653549,-1,0.433522,0,0,0,0,0,0,0,0,0,0,0,0,0,0,0.01232162,-0.2908571,0.06451092,-0.1052246,-0.9893799,-0.2080078,0,0,0,0,0,0
1.579999,-0.8754889,-0.4985968,-1,0.433522,0,0,0,0,0,0,0,0,0,0,0,0,0,0,0.005497747,-0.3156182,0.04748035,-0.1177979,-0.9906006,-0.2075195,0,0,0,0,0,0
1.589999,-0.8873342,-0.540288,-1,0.433522,0,0,0,0,0,0,0,0,0,0,0,0,0,0,0.01899381,-0.3341379,0.01749398,-0.1351318,-0.9758301,-0.2049561,0,0,0,0,0,0
1.599999,-0.8909287,-0.5899928,-1,0.433522,0,0,0,0,0,0,0,0,0,0,0,0,0,0,0.02349116,-0.1716854,-0.003248777,-0.1391602,-0.9727783,-0.2056885,0,0,0,0,0,0
1.609999,-0.893341,-0.6233535,-1,0.4580168,0,0,0,0,0,0,0,0,0,0,0,0,0,0,0.04000574,-0.3459397,-0.03391127,-0.1439209,-0.9869385,-0.1893311,0,0,0,0,0,0
1.619999,-0.8700544,-0.6634662,-0.9690174,0.5702448,0,0,0,0,0,0,0,0,0,0,0,0,0,0,0.01174653,-0.1859451,-0.03873857,-0.1572266,-0.9802246,-0.2019043,0,0,0,0,0,0
1.629999,-0.8308456,-0.7195361,-0.8806496,0.6893774,0,0,0,0,0,0,0,0,0,0,0,0,0,0,0.03577475,-0.3597468,-0.1021724,-0.1484375,-0.9753418,-0.1936035,0,0,0,0,0,0
1.639999,-0.790792,-0.7590014,-0.8092968,0.7774033,0,0,0,0,0,0,0,0,0,0,0,0,0,0,0.04461554,-0.3527923,-0.1219865,-0.1446533,-0.9644775,-0.1884766,0,0,0,0,0,0
1.649999,-0.7590014,-0.790792,-0.7450754,0.8327313,0,0,0,0,0,0,0,0,0,0,0,0,0,0,0.03367917,-0.1575539,-0.06159136,-0.1317139,-0.9720459,-0.1710205,0,0,0,0,0,0
1.659999,-0.7031947,-0.8382716,-0.680935,0.8800389,0,0,0,0,0,0,0,0,0,0,0,0,0,0,0.1010915,-0.2917222,-0.1205449,-0.1280518,-0.9812012,-0.1799316,0,0,0,0,0,0
1.669999,-0.6556707,-0.8782014,-0.6652973,0.8963585,0,0,0,0,0,0,0,0,0,0,0,0,0,0,0.04647871,-0.1411853,-0.06147185,-0.1085205,-1.030029,-0.1547852,0,0,0,0,0,0
1.679999,-0.5608505,-0.9506614,-0.6167826,0.919205,0,0,0,0,0,0,0,0,0,0,0,0,0,0,0.07571852,-0.2289048,-0.09645991,-0.1258545,-1.039673,-0.1622314,0,0,0,0,0,0
1.689999,-0.4811167,-0.9900665,-0.5768758,0.9428936,0,0,0,0,0,0,0,0,0,0,0,0,0,0,0.0530546,-0.1926298,-0.08313771,-0.1243896,-1.01001,-0.1556396,0,0,0,0,0,0
1.699999,-0.3928797,-1,-0.5365938,0.9579193,0,0,0,0,0,0,0,0,0,0,0,0,0,0,0.01361008,-0.07381735,-0.03598596,-0.1258545,-1.000488,-0.1610107,0,0,0,0,0,0
1.709999,-0.2962267,-1,-0.4729256,0.9895671,0,0,0,0,0,0,0,0,0,0,0,0,0,0,0.01412854,-0.1100298,-0.05612985,-0.1121826,-0.9962158,-0.1530762,0,0,0,0,0,0
1.719999,-0.2244794,-1,-0.4091095,1,0,0,0,0,0,0,0,0,0,0,0,0,0,0,-0.003786696,-0.0679329,-0.0460766,-0.1186523,-1.015869,-0.1398926,0,0,0,0,0,0
1.729999,-0.1453634,-1,-0.3605264,1,0,0,0,0,0,0,0,0,0,0,0,0,0,0,-0.02249153,-0.008746706,-0.01449454,-0.1173096,-1.012451,-0.1486816,0,0,0,0,0,0
1.739999,-0.035298,-1,-0.2962267,1,0,0,0,0,0,0,0,0,0,0,0,0,0,0,-0.07471888,0.02798857,-0.002498794,-0.1092529,-0.9871826,-0.164917,0,0,0,0,0,0
1.749999,0.05884144,-1,-0.2722459,1,0,0,0,0,0,0,0,0,0,0,0,0,0,0,-0.06927831,0.0541306,0.02004899,-0.1221924,-0.9769287,-0.168457,0,0,0,0,0,0
1.759999,0.1453634,-1,-0.2483314,1,0,0,0,0,0,0,0,0,0,0,0,0,0,0,-0.02168385,0.03875411,0.02076113,-0.1350098,-0.9676514,-0.1859131,0,0,0,0,0,0
1.769999,0.2086106,-1,-0.2244794,1,0,0,0,0,0,0,0,0,0,0,0,0,0,0,-0.00899649,0.04198362,0.02745083,-0.133667,-0.9613037,-0.1906738,0,0,0,0,0,0
1.779999,0.2962267,-1,-0.1848525,1,0,0,0,0,0,0,0,0,0,0,0,0,0,0,0.003690664,0.08036976,0.07358404,-0.1318359,-0.9660645,-0.2021484,0,0,0,0,0,0
1.789999,0.3444016,-1,-0.1611441,1,0,0,0,0,0,0,0,0,0,0,0,0,0,0,0.01760717,0.05555089,0.09049617,-0.1437988,-0.9758301,-0.1864014,0,0,0,0,0,0
1.799999,0.3928797,-1,-0.1374799,1,0,0,0,0,0,0,0,0,0,0,0,0,0,0,0.01049519,0.01349382,0.06696933,-0.1513672,-0.9976807,-0.1882324,0,0,0,0,0,0
1.809999,0.4498426,-1,-0.1059862,1,0,0,0,0,0,0,0,0,0,0,0,0,0,0,0.01854976,0.00297942,0.1882664,-0.1575928,-1.022827,-0.189209,0,0,0,0,0,0
1.819999,0.4825947,-1,-0.09026043,1,0,0,0,0,0,0,0,0,0,0,0,0,0,0,0.0101692,-0.00718955,0.2506731,-0.1584473,-1.047852,-0.1713867,0,0,0,0,0,0
1.829999,0.5154955,-1,-0.08240198,1,0,0,0,0,0,0,0,0,0,0,0,0,0,0,-0.00599766,-0.003690868,0.1566312,-0.1560059,-1.058228,-0.1599121,0,0,0,0,0,0
1.839999,0.5485454,-1,-0.06669273,1,0,0,0,0,0,0,0,0,0,0,0,0,0,0,-0.01983842,-0.001384075,0.1896183,-0.1634521,-1.061157,-0.1495361,0,0,0,0,0,0
1.849999,0.5968135,-0.9973595,-0.05884144,1,0,0,0,0,0,0,0,0,0,0,0,0,0,0,-0.09543993,0.002191351,0.4723564,-0.1768799,-1.021606,-0.184082,0,0,0,0,0,0
1.859999,0.6207611,-0.981203,-0.05884144,1,0,0,0,0,0,0,0,0,0,0,0,0,0,0,-0.1073006,-0.003671458,0.5442873,-0.1866455,-0.9780273,-0.2207031,0,0,0,0,0,0
1.869999,0.6447625,-0.9651414,-0.05796295,0.9080862,0,0,0,0,0,0,0,0,0,0,0,0,0,0,-0.04248054,-0.003998169,0.3343469,-0.2010498,-0.9543457,-0.1781006,0,0,0,0,0,0
1.879999,0.6766679,-0.9409287,-0.0635591,0.7514929,0,0,0,0,0,0,0,0,0,0,0,0,0,0,-0.07087399,-0.004901578,0.7008746,-0.2198486,-0.9119873,-0.1715088,0,0,0,0,0,0
1.889999,0.6845161,-0.9327032,-0.06117346,0.6225299,0,0,0,0,0,0,0,0,0,0,0,0,0,0,-0.03554458,-0.01626283,0.7396971,-0.2414551,-0.9349365,-0.1760254,0,0,0,0,0,0
1.899999,0.6923701,-0.9244941,-0.07808981,0.4855149,0,0,0,0,0,0,0,0,0,0,0,0,0,0,-0.0002306792,-0.02076113,0.3651652,-0.2626953,-0.972168,-0.1716309,0,0,0,0,0,0
1.909999,0.6923701,-0.9244941,-0.1026555,0.2903684,0,0,0,0,0,0,0,0,0,0,0,0,0,0,-0.02746882,-0.06691374,0.765559,-0.2709961,-1.006958,-0.1730957,0,0,0,0,0,0
1.919999,0.6923701,-0.9244941,-0.1112123,0.1705255,0,0,0,0,0,0,0,0,0,0,0,0,0,0,-0.05472939,-0.04398344,0.3926022,-0.2799072,-1.005615,-0.166626,0,0,0,0,0,0
1.929999,0.6923701,-0.9244941,-0.1268218,0.1045723,0,0,0,0,0,0,0,0,0,0,0,0,0,0,-0.2033451,-0.1001155,0.7155721,-0.2962646,-0.947998,-0.1707764,0,0,0,0,0,0
1.939999,0.6923701,-0.9244941,-0.1526974,0.07976729,0,0,0,0,0,0,0,0,0,0,0,0,0,0,-0.2535458,-0.1054359,0.6740021,-0.3227539,-0.9089355,-0.166748,0,0,0,0,0,0
1.949998,0.6923701,-0.9244941,-0.1901017,0.07159675,0,0,0,0,0,0,0,0,0,0,0,0,0,0,-0.1328712,-0.04798128,0.3044966,-0.3546143,-0.8843994,-0.1738281,0,0,0,0,0,0
1.959998,0.6923701,-0.9244941,-0.3010868,0.04969395,0,0,0,0,0,0,0,0,0,0,0,0,0,0,-0.2643763,-0.09224531,0.6118676,-0.3831787,-0.8380127,-0.2121582,0,0,0,0,0,0
1.969998,0.6923701,-0.9244941,-0.4005067,0.02242838,0,0,0,0,0,0,0,0,0,0,0,0,0,0,-0.241532,-0.08359907,0.5887881,-0.4068604,-0.831665,-0.2304688,0,0,0,0,0,0
1.979998,0.6923701,-0.9244941,-0.4741593,-0.01681416,0,0,0,0,0,0,0,0,0,0,0,0,0,0,-0.1077007,-0.03723295,0.2783725,-0.4173584,-0.8706055,-0.2480469,0,0,0,0,0,0
1.989998,0.6923701,-0.9244941,-0.5300454,-0.04503654,0,0,0,0,0,0,0,0,0,0,0,0,0,0,-0.1681856,-0.05751644,0.4706852,-0.4263916,-0.8920898,-0.2562256,0,0,0,0,0,0
1.999998,0.6923701,-0.9244941,-0.567803,-0.07406126,0,0,0,0,0,0,0,0,0,0,0,0,0,0,-0.1612776,-0.05484213,0.3973507,-0.4398193,-0.8775635,-0.2580566,0,0,0,0,0,0
2.009999,0.6923701,-0.9244941,-0.6057717,-0.103949,0,0,0,0,0,0,0,0,0,0,0,0,0,0,-0.06827503,-0.01591546,0.1545414,-0.4415283,-0.8720703,-0.279541,0,0,0,0,0,0
2.019999,0.6923701,-0.9244941,-0.6526453,-0.1276122,0,0,0,0,0,0,0,0,0,0,0,0,0,0,-0.1169311,-0.02398983,0.2172927,-0.4373779,-0.8686523,-0.2902832,0,0,0,0,0,0
2.029999,0.7002302,-0.9163012,-0.6801231,-0.1286719,0,0,0,0,0,0,0,0,0,0,0,0,0,0,-0.1069398,-0.03637088,0.1320442,-0.4781494,-0.8619385,-0.2717285,0,0,0,0,0,0
2.039999,0.7153703,-0.8912154,-0.7167883,-0.1299875,0,0,0,0,0,0,0,0,0,0,0,0,0,0,-0.0449794,-0.009995421,0.002998627,-0.4821777,-0.8438721,-0.3103027,0,0,0,0,0,0
2.049999,0.7305239,-0.8662497,-0.79938,-0.1325986,0,0,0,0,0,0,0,0,0,0,0,0,0,0,-0.07125832,-0.02398974,-0.08411747,-0.4804688,-0.8092041,-0.3122559,0,0,0,0,0,0
2.059999,0.7456988,-0.8414034,-0.8544987,-0.1341141,0,0,0,0,0,0,0,0,0,0,0,0,0,0,-0.04610682,-0.015862,-0.149389,-0.444458,-0.7999268,-0.3233643,0,0,0,0,0,0
2.069999,0.7596387,-0.7994105,-0.9372415,-0.1361139,0,0,0,0,0,0,0,0,0,0,0,0,0,0,-0.006919767,-0.006919767,-0.1033352,-0.432251,-0.8046875,-0.3261719,0,0,0,0,0,0
2.079998,0.7869061,-0.7078201,-1,-0.1296006,0,0,0,0,0,0,0,0,0,0,0,0,0,0,0.01701183,-0.01391717,-0.268943,-0.4106445,-0.8026123,-0.3127441,0,0,0,0,0,0
2.089998,0.7969697,-0.6163756,-1,-0.1059862,0,0,0,0,0,0,0,0,0,0,0,0,0,0,0.05486168,-0.01487826,-0.3068506,-0.4000244,-0.8060303,-0.2960205,0,0,0,0,0,0
2.099998,0.8013886,-0.4529588,-1,-0.05884144,0,0,0,0,0,0,0,0,0,0,0,0,0,0,0.1671438,-0.0197035,-0.5296302,-0.3796387,-0.8363037,-0.286377,0,0,0,0,0,0
2.109998,0.7934681,-0.3488193,-1,-0.02745281,0,0,0,0,0,0,0,0,0,0,0,0,0,0,0.1505897,-0.01364798,-0.3873926,-0.3752441,-0.8891602,-0.2634277,0,0,0,0,0,0
2.119998,0.8157605,-0.2795799,-1,0.01176485,0,0,0,0,0,0,0,0,0,0,0,0,0,0,0.1474307,-0.01416824,-0.4129745,-0.3804932,-0.9388428,-0.2470703,0,0,0,0,0,0
2.129998,0.8483608,-0.2111305,-1,0.06669273,0,0,0,0,0,0,0,0,0,0,0,0,0,0,0.09409052,-0.01149461,-0.4173432,-0.3585205,-0.9606934,-0.237915,0,0,0,0,0,0
2.139998,0.8741874,-0.1732971,-1,0.09812176,0,0,0,0,0,0,0,0,0,0,0,0,0,0,0.05265086,-0.003767693,-0.4200712,-0.3417969,-0.9500732,-0.2276611,0,0,0,0,0,0
2.149998,0.9094424,-0.1277089,-1,0.113854,0,0,0,0,0,0,0,0,0,0,0,0,0,0,0.01849153,0.00449794,-0.2203991,-0.329834,-0.9470215,-0.21521,0,0,0,0,0,0
2.159998,0.9636109,-0.07412392,-1,0.1296006,0,0,0,0,0,0,0,0,0,0,0,0,0,0,0.03481208,0.0177424,-0.4310281,-0.3195801,-0.9405518,-0.2089844,0,0,0,0,0,0
2.169998,1,-0.02745281,-1,0.1374799,0,0,0,0,0,0,0,0,0,0,0,0,0,0,0.04275106,0.02564299,-0.4323161,-0.310791,-0.9488525,-0.2094727,0,0,0,0,0,0
2.179998,1,0.01960851,-1,0.1374799,0,0,0,0,0,0,0,0,0,0,0,0,0,0,0.03308198,0.0462497,-0.4109981,-0.3425293,-0.9554443,-0.2196045,0,0,0,0,0,0
2.189998,1,0.06669273,-1,0.1374799,0,0,0,0,0,0,0,0,0,0,0,0,0,0,0.02906457,0.06354979,-0.3905263,-0.3166504,-0.9716797,-0.2290039,0,0,0,0,0,0
2.199998,1,0.1059862,-1,0.1453634,0,0,0,0,0,0,0,0,0,0,0,0,0,0,0.02760361,0.08019689,-0.3657865,-0.3123779,-0.9835205,-0.210083,0,0,0,0,0,0
2.209998,1,0.1374799,-1,0.1453634,0,0,0,0,0,0,0,0,0,0,0,0,0,0,0.005747368,0.05622425,-0.1764192,-0.291748,-0.9987793,-0.2062988,0,0,0,0,0,0
2.219998,1,0.1927661,-1,0.1453634,0,0,0,0,0,0,0,0,0,0,0,0,0,0,-0.01118741,0.1348655,-0.3127325,-0.2731934,-1.003296,-0.1998291,0,0,0,0,0,0
2.229998,1,0.2244794,-1,0.1532514,0,0,0,0,0,0,0,0,0,0,0,0,0,0,-0.02585546,0.1637065,-0.2934837,-0.2593994,-1.020508,-0.1960449,0,0,0,0,0,0
2.239998,1,0.2722459,-1,0.1611441,0,0,0,0,0,0,0,0,0,0,0,0,0,0,-0.02375787,0.09180224,-0.1360887,-0.2349854,-1.036255,-0.1920166,0,0,0,0,0,0
2.249998,1,0.3605264,-1,0.1690417,0,0,0,0,0,0,0,0,0,0,0,0,0,0,-0.05987854,0.2054511,-0.2664059,-0.2340088,-1.017822,-0.1882324,0,0,0,0,0,0
2.259998,1,0.4743927,-1,0.1769445,0,0,0,0,0,0,0,0,0,0,0,0,0,0,-0.06072465,0.2376507,-0.261391,-0.2216797,-1.00354,-0.2324219,0,0,0,0,0,0
2.269998,0.9941757,0.5469962,-1,0.1769445,0,0,0,0,0,0,0,0,0,0,0,0,0,0,-0.02214521,0.1132635,-0.1206452,-0.2374268,-0.9873047,-0.2390137,0,0,0,0,0,0
2.279998,0.962338,0.6029587,-1,0.1769445,0,0,0,0,0,0,0,0,0,0,0,0,0,0,-0.01562816,0.2484712,-0.2696737,-0.2592773,-0.9638672,-0.2644043,0,0,0,0,0,0
2.289998,0.9545932,0.6190876,-1,0.1769445,0,0,0,0,0,0,0,0,0,0,0,0,0,0,0,0.1281913,-0.1411853,-0.2545166,-0.9873047,-0.2547607,0,0,0,0,0,0
2.299998,0.9474515,0.6436275,-1,0.1769445,0,0,0,0,0,0,0,0,0,0,0,0,0,0,-0.02349032,0.249146,-0.2726362,-0.2318115,-0.9692383,-0.2672119,0,0,0,0,0,0
2.309998,0.9397725,0.6598403,-1,0.1769445,0,0,0,0,0,0,0,0,0,0,0,0,0,0,-0.009803358,0.2352461,-0.2578518,-0.223877,-0.9381104,-0.2573242,0,0,0,0,0,0
2.319998,0.922732,0.6670833,-0.9483994,0.1990468,0,0,0,0,0,0,0,0,0,0,0,0,0,0,0.01274416,0.124443,-0.1339387,-0.2198486,-0.9298096,-0.2385254,0,0,0,0,0,0
2.329998,0.91571,0.691781,-0.8238968,0.2644134,0,0,0,0,0,0,0,0,0,0,0,0,0,0,0.05122845,0.2526446,-0.2596417,-0.2061768,-0.9321289,-0.2541504,0,0,0,0,0,0
2.339998,0.9075292,0.6996371,-0.7085443,0.2886662,0,0,0,0,0,0,0,0,0,0,0,0,0,0,0.07122038,0.254144,-0.2408993,-0.1903076,-0.9487305,-0.2563477,0,0,0,0,0,0
2.349998,0.8912154,0.7153703,-0.6109509,0.2890127,0,0,0,0,0,0,0,0,0,0,0,0,0,0,0.0379857,0.1292014,-0.1069597,-0.1826172,-0.9445801,-0.2572021,0,0,0,0,0,0
2.359998,0.8674718,0.7475448,-0.4878691,0.2772781,0,0,0,0,0,0,0,0,0,0,0,0,0,0,0.05628382,0.2503743,-0.1803658,-0.1647949,-0.9560547,-0.2617188,0,0,0,0,0,0
2.369998,0.8432577,0.771321,-0.3952467,0.2225339,0,0,0,0,0,0,0,0,0,0,0,0,0,0,0.06973972,0.2484904,-0.1665829,-0.1428223,-0.9434814,-0.2766113,0,0,0,0,0,0
2.379998,0.8117793,0.8117793,-0.2729402,0.1438072,0,0,0,0,0,0,0,0,0,0,0,0,0,0,0.04897757,0.1286911,-0.07971349,-0.137085,-0.9534912,-0.2670898,0,0,0,0,0,0
2.389998,0.7798811,0.8438712,-0.05334941,0.02963856,0,0,0,0,0,0,0,0,0,0,0,0,0,0,0.1054561,0.2728863,-0.1291958,-0.1523438,-0.9648438,-0.2486572,0,0,0,0,0,0
2.399998,0.7646044,0.8686867,0,0,0,0,0,0,0,0,0,0,0,0,0,0,0,0,0.06147685,0.1334498,-0.05622883,-0.1719971,-0.9648438,-0.243042,0,0,0,0,0,0
2.409998,0.7487553,0.8848926,0,0,0,0,0,0,0,0,0,0,0,0,0,0,0,0,0.06099869,0.2422829,-0.1033879,-0.1705322,-0.942749,-0.25,0,0,0,0,0,0
2.419998,0.731741,0.8836871,0,0,0,0,0,0,0,0,0,0,0,0,0,0,0,0,0.05451529,0.218157,-0.09190311,-0.1604004,-0.9498291,-0.2836914,0,0,0,0,0,0
2.429998,0.7238518,0.8918174,0,0,0,0,0,0,0,0,0,0,0,0,0,0,0,0,0.03137238,0.08881151,-0.03506324,-0.1436768,-0.9525146,-0.2700195,0,0,0,0,0,0
2.439998,0.7159706,0.8999631,0,0,0,0,0,0,0,0,0,0,0,0,0,0,0,0,0.1119519,0.2666349,-0.1054546,-0.1367188,-0.9494629,-0.2580566,0,0,0,0,0,0
2.449998,0.6996371,0.9075292,0,0,0,0,0,0,0,0,0,0,0,0,0,0,0,0,0.03206441,0.06412882,-0.03437121,-0.114502,-0.9626465,-0.2611084,0,0,0,0,0,0
2.459998,0.6923701,0.9244941,0,0,0,0,0,0,0,0,0,0,0,0,0,0,0,0,0.0881319,0.1149654,-0.07208167,-0.1212158,-0.9528809,-0.255249,0,0,0,0,0,0
2.469998,0.6839312,0.923907,0,0,0,0,0,0,0,0,0,0,0,0,0,0,0,0,0.06797441,0.04998118,-0.04048476,-0.114502,-0.94104,-0.2390137,0,0,0,0,0,0
2.479998,0.6598403,0.9397725,0,0,0,0,0,0,0,0,0,0,0,0,0,0,0,0,0.1676935,0.08946995,-0.08996979,-0.1079102,-0.9558105,-0.2366943,0,0,0,0,0,0
2.489998,0.6436275,0.9474515,0,0,0,0,0,0,0,0,0,0,0,0,0,0,0,0,0.1764264,0.08646393,-0.09146181,-0.1011963,-0.9609375,-0.2357178,0,0,0,0,0,0
2.499998,0.6274477,0.9551592,0,0,0,0,0,0,0,0,0,0,0,0,0,0,0,0,0.07589347,0.03829275,-0.04659721,-0.0949707,-0.9747314,-0.2255859,0,0,0,0,0,0
2.509998,0.6196507,0.9634567,0,0,0,0,0,0,0,0,0,0,0,0,0,0,0,0,0.1299776,0.08459505,-0.1120053,-0.1151123,-0.9890137,-0.2104492,0,0,0,0,0,0
2.519998,0.6112997,0.9628969,0,0,0,0,0,0,0,0,0,0,0,0,0,0,0,0,0.09003888,0.09134572,-0.1194684,-0.1022949,-0.9914551,-0.2088623,0,0,0,0,0,0
2.529998,0.6112997,0.9628969,0,0,0,0,0,0,0,0,0,0,0,0,0,0,0,0,0.02124027,0.0484778,-0.07046773,-0.100708,-0.9755859,-0.2041016,0,0,0,0,0,0
2.539998,0.6112997,0.9628969,0,0,0,0,0,0,0,0,0,0,0,0,0,0,0,0,0.01574279,0.1044522,-0.1611762,-0.09411621,-0.9781494,-0.1877441,0,0,0,0,0,0
2.549998,0.6112997,0.9628969,0,0,0,0,0,0,0,0,0,0,0,0,0,0,0,0,0.006920377,0.05490166,-0.07912298,-0.09020996,-0.9761963,-0.1851807,0,0,0,0,0,0
2.559998,0.6112997,0.9628969,0,0,0,0,0,0,0,0,0,0,0,0,0,0,0,0,0.01014899,0.05974065,-0.079116,-0.08789063,-0.9890137,-0.1743164,0,0,0,0,0,0
2.569998,0.6112997,0.9628969,0,0,0,0,0,0,0,0,0,0,0,0,0,0,0,0,0.0329667,0.142324,-0.1670251,-0.07373047,-0.9890137,-0.1853027,0,0,0,0,0,0
2.579998,0.6112997,0.9628969,0,0,0,0,0,0,0,0,0,0,0,0,0,0,0,0,0.03239011,0.1528964,-0.1626232,-0.06799316,-0.9926758,-0.1844482,0,0,0,0,0,0
2.589998,0.6112997,0.9628969,0,0,0,0,0,0,0,0,0,0,0,0,0,0,0,0,0.01199451,0.08521097,-0.07821418,-0.06213379,-1,-0.1778564,0,0,0,0,0,0
2.599998,0.6112997,0.9628969,0,0,0,0,0,0,0,0,0,0,0,0,0,0,0,0,0.0287381,0.1729278,-0.1371926,-0.05529785,-1.00061,-0.182251,0,0,0,0,0,0
2.609998,0.6112997,0.9628969,0,0,0,0,0,0,0,0,0,0,0,0,0,0,0,0,0.02604773,0.1631875,-0.1149752,-0.04077148,-1.015259,-0.1833496,0,0,0,0,0,0
2.619998,0.6112997,0.9628969,0,0,0,0,0,0,0,0,0,0,0,0,0,0,0,0,0.004844264,0.07543211,-0.0422143,-0.03527832,-1.01355,-0.2056885,0,0,0,0,0,0
2.629998,0.6280115,0.9640176,0,0,0,0,0,0,0,0,0,0,0,0,0,0,0,0,0.009380616,0.1552224,-0.0621083,-0.02844238,-0.9901123,-0.2054443,0,0,0,0,0,0
2.639998,0.6447625,0.9651414,0.0255902,-0.02120331,0,0,0,0,0,0,0,0,0,0,0,0,0,0,0.007746452,0.07971349,-0.02498856,-0.02441406,-0.9840088,-0.2055664,0,0,0,0,0,0
2.649998,0.6615523,0.9662672,0.1048671,-0.06673362,0,0,0,0,0,0,0,0,0,0,0,0,0,0,0.02348924,0.1584274,-0.04522929,-0.02246094,-0.9838867,-0.2054443,0,0,0,0,0,0
2.659998,0.6693956,0.9579972,0.1793871,-0.09092221,0,0,0,0,0,0,0,0,0,0,0,0,0,0,0.02648895,0.1569345,-0.03998328,-0.01879883,-0.9925537,-0.2059326,0,0,0,0,0,0
2.669998,0.6766679,0.9409287,0.283788,-0.1141003,0,0,0,0,0,0,0,0,0,0,0,0,0,0,0.01222492,0.07196558,-0.01268624,-0.01818848,-0.996582,-0.2110596,0,0,0,0,0,0
2.679998,0.6929545,0.9332856,0.4172329,-0.1281266,0,0,0,0,0,0,0,0,0,0,0,0,0,0,0.02373994,0.1458226,-0.01991463,-0.01672363,-1,-0.2131348,0,0,0,0,0,0
2.689998,0.7008187,0.9250807,0.5172814,-0.1423392,0,0,0,0,0,0,0,0,0,0,0,0,0,0,0.01116817,0.1426893,-0.01805005,-0.01330566,-1,-0.2176514,0,0,0,0,0,0
2.699998,0.7323431,0.892418,0.6538203,-0.1497577,0,0,0,0,0,0,0,0,0,0,0,0,0,0,0.0004613178,0.1355385,-0.02470097,-0.00793457,-0.9796143,-0.2183838,0,0,0,0,0,0
2.709998,0.7572768,0.885493,0.7185658,-0.1675413,0,0,0,0,0,0,0,0,0,0,0,0,0,0,0.01280032,0.1318831,-0.0361134,-0.005493164,-0.9813232,-0.2197266,0,0,0,0,0,0
2.719998,0.7646044,0.8686867,0.7650189,-0.1846597,0,0,0,0,0,0,0,0,0,0,0,0,0,0,0.01699289,0.1344439,-0.04448152,-0.005859375,-0.9841309,-0.2191162,0,0,0,0,0,0
2.729998,0.7798811,0.8438712,0.7928044,-0.1934594,0,0,0,0,0,0,0,0,0,0,0,0,0,0,0.007747083,0.06547534,-0.02624012,-0.008789063,-0.9835205,-0.2191162,0,0,0,0,0,0
2.739998,0.8044004,0.8284124,0.829722,-0.202651,0,0,0,0,0,0,0,0,0,0,0,0,0,0,0.01610854,0.1244663,-0.05572627,-0.002685547,-0.9906006,-0.2104492,0,0,0,0,0,0
2.749998,0.8197833,0.8037875,0.8571469,-0.2037165,0,0,0,0,0,0,0,0,0,0,0,0,0,0,0.01230356,0.1258994,-0.06057554,0.003295898,-0.9956055,-0.2108154,0,0,0,0,0,0
2.759998,0.8358289,0.7878387,0.8754408,-0.2043981,0,0,0,0,0,0,0,0,0,0,0,0,0,0,0.00322951,0.06136068,-0.03206441,0.008056641,-0.9970703,-0.2034912,0,0,0,0,0,0
2.769998,0.851927,0.7719339,0.8754408,-0.2043981,0,0,0,0,0,0,0,0,0,0,0,0,0,0,0.004786442,0.1324244,-0.07258449,0.0078125,-1.001221,-0.1987305,0,0,0,0,0,0
2.779998,0.8680802,0.7560699,0.8757813,-0.2121937,0,0,0,0,0,0,0,0,0,0,0,0,0,0,0.0004998322,0.1419407,-0.07921691,0.01196289,-1.007568,-0.1994629,0,0,0,0,0,0
2.789998,0.8755721,0.7396386,0.8757813,-0.2121937,0,0,0,0,0,0,0,0,0,0,0,0,0,0,-0.004248401,0.07297252,-0.04098457,0.01025391,-1.008423,-0.1990967,0,0,0,0,0,0
2.799998,0.8836871,0.731741,0.8757813,-0.2121937,0,0,0,0,0,0,0,0,0,0,0,0,0,0,-0.006247139,0.07146727,-0.03998169,0.01574707,-1.005493,-0.2008057,0,0,0,0,0,0
2.809998,0.8912154,0.7153703,0.8757813,-0.2121937,0,0,0,0,0,0,0,0,0,0,0,0,0,0,-0.01247544,0.1338469,-0.07714027,0.01611328,-1.007324,-0.2039795,0,0,0,0,0,0
2.819998,0.8993645,0.7075,0.8757813,-0.2121937,0,0,0,0,0,0,0,0,0,0,0,0,0,0,-0.01272536,0.1333471,-0.07642901,0.02172852,-1.002319,-0.2034912,0,0,0,0,0,0
2.829998,0.9075292,0.6996371,0.8757813,-0.2121937,0,0,0,0,0,0,0,0,0,0,0,0,0,0,-0.006497024,0.06996796,-0.04023157,0.02758789,-1.008423,-0.2028809,0,0,0,0,0,0
2.839998,0.9075292,0.6996371,0.8757813,-0.2121937,0,0,0,0,0,0,0,0,0,0,0,0,0,0,-0.01899216,0.1424406,-0.08171587,0.03173828,-1.013306,-0.199707,0,0,0,0,0,0
2.849998,0.9075292,0.6996371,0.8757813,-0.2121937,0,0,0,0,0,0,0,0,0,0,0,0,0,0,-0.01374483,0.07047346,-0.03873542,0.03686523,-1.012573,-0.1986084,0,0,0,0,0,0
2.859998,0.9075292,0.6996371,0.8849258,-0.2125368,0,0,0,0,0,0,0,0,0,0,0,0,0,0,-0.02789317,0.1293351,-0.06805086,0.03613281,-1.003784,-0.2078857,0,0,0,0,0,0
2.869998,0.9075292,0.6996371,0.9032207,-0.2132066,0,0,0,0,0,0,0,0,0,0,0,0,0,0,-0.02243287,0.1213715,-0.06537606,0.0411377,-0.9989014,-0.2110596,0,0,0,0,0,0
2.879998,0.9075292,0.6996371,0.9123711,-0.2135337,0,0,0,0,0,0,0,0,0,0,0,0,0,0,-0.006920377,0.0555937,-0.0288349,0.04040527,-0.994873,-0.2073975,0,0,0,0,0,0
2.889998,0.8987648,0.6990393,0.9215233,-0.2138556,0,0,0,0,0,0,0,0,0,0,0,0,0,0,-0.00224897,0.05722379,-0.02623798,0.04199219,-0.9927979,-0.2138672,0,0,0,0,0,0
2.899998,0.8587738,0.7469335,0.9306772,-0.2141726,0,0,0,0,0,0,0,0,0,0,0,0,0,0,0.009995931,0.1149521,-0.04947937,0.03564453,-0.9869385,-0.2220459,0,0,0,0,0,0
2.909998,0.8352143,0.779267,0.9306772,-0.2141726,0,0,0,0,0,0,0,0,0,0,0,0,0,0,0.02823835,0.11995,-0.04573089,0.03161621,-0.9868164,-0.2192383,0,0,0,0,0,0
2.919998,0.8191673,0.7951917,0.9306772,-0.2141726,0,0,0,0,0,0,0,0,0,0,0,0,0,0,0.01374483,0.06172676,-0.0209921,0.0246582,-0.9875488,-0.2161865,0,0,0,0,0,0
2.929998,0.8031714,0.8111632,0.9306772,-0.2141726,0,0,0,0,0,0,0,0,0,0,0,0,0,0,0.01328275,0.1215637,-0.04947897,0.03149414,-0.9918213,-0.2178955,0,0,0,0,0,0
2.939998,0.8037875,0.8197833,0.9309966,-0.2220369,0,0,0,0,0,0,0,0,0,0,0,0,0,0,0.005094048,0.1273304,-0.05070921,0.04321289,-0.9949951,-0.213501,0,0,0,0,0,0
2.949998,0.7951917,0.8191673,0.9309966,-0.2220369,0,0,0,0,0,0,0,0,0,0,0,0,0,0,-0.0007497177,0.06672488,-0.02773956,0.05029297,-1.000732,-0.2143555,0,0,0,0,0,0
2.959998,0.7878387,0.8358289,0.9309966,-0.2220369,0,0,0,0,0,0,0,0,0,0,0,0,0,0,-0.008496495,0.1309454,-0.05797583,0.05187988,-0.9990234,-0.2102051,0,0,0,0,0,0
2.969998,0.771321,0.8432577,0.9309966,-0.2220369,0,0,0,0,0,0,0,0,0,0,0,0,0,0,-0.01349435,0.1284464,-0.05572676,0.05554199,-0.9976807,-0.2061768,0,0,0,0,0,0
2.979998,0.763997,0.8599966,0.9309966,-0.2220369,0,0,0,0,0,0,0,0,0,0,0,0,0,0,-0.007996988,0.06272638,-0.02499059,0.05834961,-0.9940186,-0.2081299,0,0,0,0,0,0
2.989998,0.7481521,0.8761782,0.9306772,-0.2141726,0,0,0,0,0,0,0,0,0,0,0,0,0,0,-0.01491671,0.1208332,-0.03804144,0.06066895,-0.991333,-0.2086182,0,0,0,0,0,0
2.999998,0.7153703,0.8912154,0.9309966,-0.2220369,0,0,0,0,0,0,0,0,0,0,0,0,0,0,-0.01345581,0.1230246,-0.02723852,0.06506348,-0.9853516,-0.2102051,0,0,0,0,0,0
3.009998,0.6996371,0.9075292,0.9309966,-0.2220369,0,0,0,0,0,0,0,0,0,0,0,0,0,0,-0.007996337,0.06547002,-0.01024531,0.06469727,-0.9827881,-0.2058105,0,0,0,0,0,0
3.019998,0.6760875,0.9321206,0.9401474,-0.2223585,0,0,0,0,0,0,0,0,0,0,0,0,0,0,-0.02448984,0.1399417,-0.008496393,0.06787109,-0.9816895,-0.2006836,0,0,0,0,0,0
3.029998,0.6520168,0.9480243,0.9398329,-0.2144847,0,0,0,0,0,0,0,0,0,0,0,0,0,0,-0.01951176,0.1441371,-0.0007497177,0.07873535,-0.9624023,-0.1992188,0,0,0,0,0,0
3.039998,0.6274477,0.9551592,0.9493,-0.2226753,0,0,0,0,0,0,0,0,0,0,0,0,0,0,-0.00634374,0.1508653,-0.002614378,0.07653809,-0.9527588,-0.1973877,0,0,0,0,0,0
3.049998,0.6112997,0.9628969,0.9584543,-0.2229873,0,0,0,0,0,0,0,0,0,0,0,0,0,0,0.002076113,0.07450939,-0.005305622,0.07446289,-0.9506836,-0.1968994,0,0,0,0,0,0
3.059998,0.579634,0.9873765,0.9584543,-0.2229873,0,0,0,0,0,0,0,0,0,0,0,0,0,0,0.01445536,0.1552032,-0.02504699,0.07714844,-0.9605713,-0.1977539,0,0,0,0,0,0
3.069998,0.5552751,0.9947014,0.9584543,-0.2229873,0,0,0,0,0,0,0,0,0,0,0,0,0,0,0.01474386,0.1596834,-0.03723454,0.07275391,-0.9642334,-0.1953125,0,0,0,0,0,0
3.079998,0.5149953,1,0.9581493,-0.2150947,0,0,0,0,0,0,0,0,0,0,0,0,0,0,0.01251499,0.1545243,-0.04634956,0.07775879,-0.9676514,-0.1906738,0,0,0,0,0,0
3.089998,0.4825947,1,0.9581493,-0.2150947,0,0,0,0,0,0,0,0,0,0,0,0,0,0,0.01130385,0.154755,-0.05069426,0.08312988,-0.9711914,-0.1937256,0,0,0,0,0,0
3.099998,0.4580168,1,0.9581493,-0.2150947,0,0,0,0,0,0,0,0,0,0,0,0,0,0,0.003921547,0.07381735,-0.02468268,0.08666992,-0.9711914,-0.1947021,0,0,0,0,0,0
3.109998,0.4498426,1,0.9306772,-0.2141726,0,0,0,0,0,0,0,0,0,0,0,0,0,0,0.0002113509,0.1460523,-0.05215755,0.08410645,-0.9726563,-0.196167,0,0,0,0,0,0
3.119998,0.4498426,1,0.8931144,-0.1894485,0,0,0,0,0,0,0,0,0,0,0,0,0,0,-0.002748497,0.1409179,-0.05346886,0.0892334,-0.9685059,-0.199707,0,0,0,0,0,0
3.129997,0.4416777,1,0.8463857,-0.1646814,0,0,0,0,0,0,0,0,0,0,0,0,0,0,0.002249153,0.06522544,-0.02224163,0.09008789,-0.9700928,-0.197876,0,0,0,0,0,0
3.139997,0.4416777,1,0.7715625,-0.1242027,0,0,0,0,0,0,0,0,0,0,0,0,0,0,0.00936257,0.1137355,-0.03129848,0.09509277,-0.9744873,-0.1931152,0,0,0,0,0,0
3.149997,0.433522,1,0.752436,-0.1010735,0,0,0,0,0,0,0,0,0,0,0,0,0,0,0.00699706,0.1033792,-0.02216372,0.1075439,-0.9858398,-0.1939697,0,0,0,0,0,0
3.159997,0.4253754,1,0.7428048,-0.08585181,0,0,0,0,0,0,0,0,0,0,0,0,0,0,0.001845434,0.0433677,-0.00322951,0.1101074,-0.9931641,-0.1992188,0,0,0,0,0,0
3.169997,0.4172379,1,0.7334048,-0.07818021,0,0,0,0,0,0,0,0,0,0,0,0,0,0,-0.002710288,0.07825184,0.01114866,0.1000977,-1.004639,-0.201416,0,0,0,0,0,0
3.179997,0.4009901,1,0.7426123,-0.07836612,0,0,0,0,0,0,0,0,0,0,0,0,0,0,-0.01499383,0.07122021,0.02598928,0.09863281,-1.005005,-0.2025146,0,0,0,0,0,0
3.189997,0.3928797,1,0.7886581,-0.07924315,0,0,0,0,0,0,0,0,0,0,0,0,0,0,-0.007246681,0.03098581,0.01699222,0.09716797,-0.9794922,-0.2141113,0,0,0,0,0,0
3.199997,0.3766855,1,0.899213,-0.08104495,0,0,0,0,0,0,0,0,0,0,0,0,0,0,0.0063437,0.05530575,0.03389087,0.08984375,-0.9676514,-0.2102051,0,0,0,0,0,0
3.209997,0.3686016,1,1,-0.08240198,0,0,0,0,0,0,0,0,0,0,0,0,0,0,0.02512475,0.0531143,0.0324684,0.08312988,-0.9682617,-0.2102051,0,0,0,0,0,0
3.219997,0.3686016,1,1,-0.09026043,0,0,0,0,0,0,0,0,0,0,0,0,0,0,0.0238938,0.04699932,0.006247546,0.07373047,-0.9815674,-0.2023926,0,0,0,0,0,0
3.229997,0.3605264,1,1,-0.1059862,0,0,0,0,0,0,0,0,0,0,0,0,0,0,-0.003498398,0.01324393,-0.005747368,0.09667969,-1.014038,-0.2150879,0,0,0,0,0,0
3.239997,0.3605264,1,1,-0.113854,0,0,0,0,0,0,0,0,0,0,0,0,0,0,-0.01599398,0.01099586,-0.009996235,0.08349609,-1.003174,-0.2218018,0,0,0,0,0,0
3.249997,0.3524597,1,1,-0.113854,0,0,0,0,0,0,0,0,0,0,0,0,0,0,-0.03502361,0.007304503,-0.03046785,0.09118652,-0.994751,-0.2127686,0,0,0,0,0,0
3.259997,0.3524597,1,1,-0.113854,0,0,0,0,0,0,0,0,0,0,0,0,0,0,-0.04084801,-0.00686233,-0.02887238,0.09472656,-0.9998779,-0.2263184,0,0,0,0,0,0
3.269997,0.3524597,1,1,-0.113854,0,0,0,0,0,0,0,0,0,0,0,0,0,0,-0.02053045,-0.01268736,-0.009688528,0.09838867,-1.009033,-0.2271729,0,0,0,0,0,0
3.279997,0.3444016,1,1,-0.113854,0,0,0,0,0,0,0,0,0,0,0,0,0,0,-0.05149742,-0.04528857,-0.006170355,0.104126,-1.015503,-0.2229004,0,0,0,0,0,0
3.289997,0.3444016,1,1,-0.113854,0,0,0,0,0,0,0,0,0,0,0,0,0,0,-0.06280014,-0.06089708,0.00732371,0.1053467,-1.009521,-0.2218018,0,0,0,0,0,0
3.299997,0.3444016,1,1,-0.1217254,0,0,0,0,0,0,0,0,0,0,0,0,0,0,-0.03848551,-0.04148438,0.01549417,0.1038818,-1.007202,-0.2237549,0,0,0,0,0,0
3.309997,0.3444016,1,1,-0.113854,0,0,0,0,0,0,0,0,0,0,0,0,0,0,-0.07814315,-0.0986545,0.05057676,0.09094238,-0.9953613,-0.2218018,0,0,0,0,0,0
3.319997,0.3444016,1,1,-0.09026043,0,0,0,0,0,0,0,0,0,0,0,0,0,0,-0.03875069,-0.05697275,0.03575213,0.08776855,-0.9989014,-0.2139893,0,0,0,0,0,0
3.329997,0.3444016,1,1,-0.04314433,0,0,0,0,0,0,0,0,0,0,0,0,0,0,-0.08454099,-0.1383256,0.0988617,0.07434082,-0.9886475,-0.2193604,0,0,0,0,0,0
3.339997,0.3444016,1,1,0.01176485,0,0,0,0,0,0,0,0,0,0,0,0,0,0,-0.06710888,-0.1599003,0.1060171,0.05895996,-0.9829102,-0.2138672,0,0,0,0,0,0
3.349997,0.3202776,1,1,0.06669273,0,0,0,0,0,0,0,0,0,0,0,0,0,0,-0.02198993,-0.09120823,0.05547459,0.05944824,-0.9747314,-0.2196045,0,0,0,0,0,0
3.359997,0.2562958,1,1,0.1690417,0,0,0,0,0,0,0,0,0,0,0,0,0,0,-0.02866083,-0.1919184,0.0956516,0.06494141,-0.9753418,-0.2183838,0,0,0,0,0,0
3.369997,0.1927661,1,1,0.2324234,0,0,0,0,0,0,0,0,0,0,0,0,0,0,-0.021414,-0.1979542,0.09157646,0.07250977,-0.9702148,-0.2188721,0,0,0,0,0,0
3.379997,0.1296006,1,1,0.3042357,0,0,0,0,0,0,0,0,0,0,0,0,0,0,-0.01731954,-0.2032405,0.08938505,0.07897949,-0.9710693,-0.2143555,0,0,0,0,0,0
3.389997,0.05099206,1,1,0.3924417,0,0,0,0,0,0,0,0,0,0,0,0,0,0,-0.007342895,-0.2071234,0.09153797,0.07824707,-0.9466553,-0.2202148,0,0,0,0,0,0
3.399997,-0.01960851,1,0.9781127,0.4316368,0,0,0,0,0,0,0,0,0,0,0,0,0,0,0.001999084,-0.2042208,0.08790495,0.07702637,-0.9525146,-0.2127686,0,0,0,0,0,0
3.409997,-0.09026043,1,0.9631374,0.4795869,0,0,0,0,0,0,0,0,0,0,0,0,0,0,0.01049605,-0.1037109,0.04348363,0.08496094,-0.9451904,-0.2078857,0,0,0,0,0,0
3.419997,-0.1769445,1,0.9490002,0.5360461,0,0,0,0,0,0,0,0,0,0,0,0,0,0,0.05107452,-0.1915915,0.08217658,0.08459473,-0.935791,-0.1965332,0,0,0,0,0,0
3.429997,-0.2324234,1,0.9340156,0.5763075,0,0,0,0,0,0,0,0,0,0,0,0,0,0,0.0780554,-0.1779164,0.08124853,0.08959961,-0.9289551,-0.1949463,0,0,0,0,0,0
3.439997,-0.2722459,1,0.9274606,0.6090192,0,0,0,0,0,0,0,0,0,0,0,0,0,0,0.0532869,-0.07635482,0.04175295,0.09680176,-0.9351807,-0.1911621,0,0,0,0,0,0
3.449997,-0.3283107,1,0.9115608,0.6329178,0,0,0,0,0,0,0,0,0,0,0,0,0,0,0.1276518,-0.1373396,0.07921292,0.08190918,-0.9498291,-0.1975098,0,0,0,0,0,0
3.459997,-0.3605264,1,0.9045442,0.657488,0,0,0,0,0,0,0,0,0,0,0,0,0,0,0.1318862,-0.1205065,0.07448754,0.06835938,-0.975708,-0.1868896,0,0,0,0,0,0
3.469997,-0.4009901,1,0.8894031,0.6899853,0,0,0,0,0,0,0,0,0,0,0,0,0,0,0.1281913,-0.1101995,0.07496567,0.06420898,-0.9869385,-0.1779785,0,0,0,0,0,0
3.479997,-0.4416777,1,0.8662497,0.7305239,0,0,0,0,0,0,0,0,0,0,0,0,0,0,0.09100363,-0.08994633,0.05580556,0.06347656,-0.9855957,-0.1796875,0,0,0,0,0,0
3.489997,-0.4743927,1,0.826566,0.7786492,0,0,0,0,0,0,0,0,0,0,0,0,0,0,0.06122442,-0.06947093,0.03473542,0.04846191,-0.9718018,-0.1799316,0,0,0,0,0,0
3.499997,-0.4908059,1,0.8111632,0.8031714,0,0,0,0,0,0,0,0,0,0,0,0,0,0,0.02823707,-0.02923661,0.01224439,0.04675293,-0.9772949,-0.1842041,0,0,0,0,0,0
3.509997,-0.5072563,1,0.7707045,0.8345971,0,0,0,0,0,0,0,0,0,0,0,0,0,0,0.05165329,-0.0471358,0.0164168,0.03808594,-0.9770508,-0.182373,0,0,0,0,0,0
3.519997,-0.523744,1,0.7384164,0.8581596,0,0,0,0,0,0,0,0,0,0,0,0,0,0,0.0507288,-0.0462307,0.01049558,0.03283691,-0.9919434,-0.1887207,0,0,0,0,0,0
3.529997,-0.531496,1,0.7056823,0.8731322,0,0,0,0,0,0,0,0,0,0,0,0,0,0,0.0207405,-0.02273958,0.004747826,0.03295898,-1.003784,-0.1889648,0,0,0,0,0,0
3.539997,-0.5635635,0.9952292,0.6054335,0.8745151,0,0,0,0,0,0,0,0,0,0,0,0,0,0,0.03323879,-0.04823381,0.004748355,0.03283691,-1.00354,-0.1911621,0,0,0,0,0,0
3.549997,-0.579634,0.9873765,0.5055906,0.8583282,0,0,0,0,0,0,0,0,0,0,0,0,0,0,0.02448854,-0.05097673,-0.01149539,0.02734375,-0.9829102,-0.1925049,0,0,0,0,0,0
3.559997,-0.6118565,0.9717721,0.3584525,0.8209719,0,0,0,0,0,0,0,0,0,0,0,0,0,0,0.008496109,-0.0294865,-0.0207405,0.03637695,-0.9715576,-0.1956787,0,0,0,0,0,0
3.569997,-0.6358177,0.9557259,0.2139276,0.7393638,0,0,0,0,0,0,0,0,0,0,0,0,0,0,0.009246519,-0.03173805,-0.03023862,0.04296875,-0.9754639,-0.19104,0,0,0,0,0,0
3.579997,-0.6676687,0.9315377,0.05446777,0.649982,0,0,0,0,0,0,0,0,0,0,0,0,0,0,0.0224897,-0.06122196,-0.07071761,0.04248047,-0.9781494,-0.203125,0,0,0,0,0,0
3.589997,-0.691781,0.91571,-0.04644226,0.6037493,0,0,0,0,0,0,0,0,0,0,0,0,0,0,0.01299405,-0.03098581,-0.03773272,0.0324707,-0.9764404,-0.1938477,0,0,0,0,0,0
3.599997,-0.7153703,0.8912154,-0.1512106,0.5450613,0,0,0,0,0,0,0,0,0,0,0,0,0,0,0.04648274,-0.06147689,-0.06697466,0.0234375,-0.9803467,-0.2010498,0,0,0,0,0,0
3.609997,-0.7481521,0.8761782,-0.2137932,0.5152065,0,0,0,0,0,0,0,0,0,0,0,0,0,0,0.03073842,-0.03523673,-0.0294889,0.01806641,-0.9906006,-0.1960449,0,0,0,0,0,0
3.619997,-0.7872236,0.8271842,-0.3067821,0.4830937,0,0,0,0,0,0,0,0,0,0,0,0,0,0,0.05582479,-0.08114198,-0.05238378,0.01672363,-1.011597,-0.1853027,0,0,0,0,0,0
3.629997,-0.8277996,0.7958074,-0.3681591,0.4825387,0,0,0,0,0,0,0,0,0,0,0,0,0,0,0.03838594,-0.09149565,-0.04761235,0.01318359,-1.017212,-0.1865234,0,0,0,0,0,0
3.639997,-0.8593862,0.7554604,-0.4404634,0.4914261,0,0,0,0,0,0,0,0,0,0,0,0,0,0,0.002498855,-0.05272585,-0.01749199,0.01806641,-1.019287,-0.1867676,0,0,0,0,0,0
3.649997,-0.8912154,0.7153703,-0.531425,0.5016949,0,0,0,0,0,0,0,0,0,0,0,0,0,0,-0.01499435,-0.1084592,-0.01549417,0.03100586,-1.014404,-0.1783447,0,0,0,0,0,0
3.659997,-0.91571,0.691781,-0.5990415,0.5086202,0,0,0,0,0,0,0,0,0,0,0,0,0,0,-0.02174011,-0.1101996,-0.004497859,0.03710938,-1.011841,-0.1875,0,0,0,0,0,0
3.669997,-0.9315377,0.6676687,-0.6504186,0.5134884,0,0,0,0,0,0,0,0,0,0,0,0,0,0,-0.01174462,-0.05547459,-0.0002498855,0.03027344,-1.005371,-0.1928711,0,0,0,0,0,0
3.679997,-0.9468793,0.6352481,-0.7109665,0.5188134,0,0,0,0,0,0,0,0,0,0,0,0,0,0,-0.01016885,-0.1047631,0,0.0345459,-0.9949951,-0.1928711,0,0,0,0,0,0
3.689997,-0.9545932,0.6190876,-0.7283723,0.520266,0,0,0,0,0,0,0,0,0,0,0,0,0,0,-0.007419538,-0.1042974,0,0.03320313,-0.9904785,-0.197998,0,0,0,0,0,0
3.699997,-0.9706661,0.5951821,-0.7370915,0.5209809,0,0,0,0,0,0,0,0,0,0,0,0,0,0,0,-0.05122654,0.001499313,0.03356934,-0.9841309,-0.1970215,0,0,0,0,0,0
3.709997,-0.9863042,0.563032,-0.7370915,0.5209809,0,0,0,0,0,0,0,0,0,0,0,0,0,0,0.01624327,-0.09670964,0.001249448,0.02978516,-0.9957275,-0.19104,0,0,0,0,0,0
3.719997,-0.9931315,0.5304679,-0.7370915,0.5209809,0,0,0,0,0,0,0,0,0,0,0,0,0,0,0.02099124,-0.09371088,-0.003998372,0.02832031,-0.9978027,-0.1906738,0,0,0,0,0,0
3.729997,-1,0.4985325,-0.7458213,0.5216885,0,0,0,0,0,0,0,0,0,0,0,0,0,0,0.009746331,-0.0467324,-0.00549793,0.01989746,-0.9967041,-0.192749,0,0,0,0,0,0
3.739997,-1,0.4498426,-0.7370915,0.5209809,0,0,0,0,0,0,0,0,0,0,0,0,0,0,0.01635845,-0.08938505,-0.01514741,0.02868652,-0.9918213,-0.1964111,0,0,0,0,0,0
3.749997,-1,0.4172379,-0.7458213,0.5216885,0,0,0,0,0,0,0,0,0,0,0,0,0,0,0.01599335,-0.09396079,-0.01249481,0.02941895,-1.001831,-0.1831055,0,0,0,0,0,0
3.759997,-1,0.3766855,-0.7835425,0.5574457,0,0,0,0,0,0,0,0,0,0,0,0,0,0,0,-0.04572906,-0.005747368,0.01953125,-1.01123,-0.1826172,0,0,0,0,0,0
3.769997,-1,0.3524597,-0.8745151,0.6054335,0,0,0,0,0,0,0,0,0,0,0,0,0,0,-0.01849153,-0.0484778,-0.01149474,0.02856445,-1.017578,-0.1888428,0,0,0,0,0,0
3.779997,-1,0.3042357,-0.9103752,0.6161929,0,0,0,0,0,0,0,0,0,0,0,0,0,0,-0.04448164,-0.09945863,-0.01724298,0.06079102,-1.007202,-0.2139893,0,0,0,0,0,0
3.789997,-1,0.2882255,-0.9109678,0.62455,0,0,0,0,0,0,0,0,0,0,0,0,0,0,-0.00674746,-0.03298758,-0.002249153,0.07006836,-0.9785156,-0.1704102,0,0,0,0,0,0
3.799997,-1,0.2642672,-0.919205,0.6167826,0,0,0,0,0,0,0,0,0,0,0,0,0,0,-0.01149474,-0.02748741,-0.009245765,0.06298828,-0.9694824,-0.1604004,0,0,0,0,0,0
3.809997,-1,0.2483314,-0.9363098,0.6095974,0,0,0,0,0,0,0,0,0,0,0,0,0,0,-0.03348605,-0.04223239,-0.02723858,0.04663086,-0.961792,-0.1914063,0,0,0,0,0,0
3.819997,-1,0.2403741,-0.9601151,0.5696949,0,0,0,0,0,0,0,0,0,0,0,0,0,0,-0.03415859,-0.03723415,-0.02691163,0.03222656,-0.9776611,-0.1896973,0,0,0,0,0,0
3.829997,-1,0.2244794,-0.9752428,0.5294175,0,0,0,0,0,0,0,0,0,0,0,0,0,0,-0.01924119,-0.02149016,-0.01299405,0.02233887,-0.9737549,-0.1899414,0,0,0,0,0,0
3.839997,-1,0.2165419,-0.9910758,0.497528,0,0,0,0,0,0,0,0,0,0,0,0,0,0,-0.01049519,-0.02498856,-0.01224439,0.01599121,-0.980957,-0.1931152,0,0,0,0,0,0
3.849997,-1,0.2165419,-1,0.4739094,0,0,0,0,0,0,0,0,0,0,0,0,0,0,0.0007497788,-0.0534777,-0.01174497,0.02111816,-1.000244,-0.1783447,0,0,0,0,0,0
3.859997,-1,0.2086106,-1,0.4498426,0,0,0,0,0,0,0,0,0,0,0,0,0,0,0.006247648,-0.02698984,0.003498683,0.02490234,-1.012573,-0.1724854,0,0,0,0,0,0
3.869997,-1,0.2006854,-1,0.433522,0,0,0,0,0,0,0,0,0,0,0,0,0,0,0.009496424,-0.02873918,0.01199548,0.02612305,-1.018311,-0.1767578,0,0,0,0,0,0
3.879997,-1,0.2006854,-1,0.4091095,0,0,0,0,0,0,0,0,0,0,0,0,0,0,0.02766129,-0.06180059,0.03973302,0.02416992,-1.02063,-0.1806641,0,0,0,0,0,0
3.889997,-1,0.1927661,-1,0.4009901,0,0,0,0,0,0,0,0,0,0,0,0,0,0,0.0230287,-0.06875917,0.04569207,0.0189209,-1.014648,-0.1832275,0,0,0,0,0,0
3.899997,-1,0.1769445,-1,0.4009901,0,0,0,0,0,0,0,0,0,0,0,0,0,0,0.01174462,-0.03998169,0.0224897,0.01452637,-1.004028,-0.1918945,0,0,0,0,0,0
3.909997,-1,0.1374799,-1,0.4009901,0,0,0,0,0,0,0,0,0,0,0,0,0,0,0.03248639,-0.09096201,0.04198252,0.01538086,-0.9998779,-0.1988525,0,0,0,0,0,0
3.919997,-1,0.1059862,-1,0.4009901,0,0,0,0,0,0,0,0,0,0,0,0,0,0,0.03823406,-0.0952103,0.04398169,0.02429199,-0.9984131,-0.1982422,0,0,0,0,0,0
3.929997,-1,0.08240198,-1,0.4009901,0,0,0,0,0,0,0,0,0,0,0,0,0,0,0.01999084,-0.050227,0.02648787,0.02478027,-0.9998779,-0.1884766,0,0,0,0,0,0
3.939997,-1,0.06669273,-1,0.4009901,0,0,0,0,0,0,0,0,0,0,0,0,0,0,0.02029977,-0.04798128,0.02675879,0.02185059,-1.007813,-0.1876221,0,0,0,0,0,0
3.949997,-1,0.02745281,-1,0.4009901,0,0,0,0,0,0,0,0,0,0,0,0,0,0,0.03521427,-0.1038361,0.05645436,0.01782227,-1.024292,-0.1882324,0,0,0,0,0,0
3.959997,-1,0.01176485,-1,0.4009901,0,0,0,0,0,0,0,0,0,0,0,0,0,0,0.009688324,-0.1100878,0.05551483,0.01794434,-1.0177,-0.1921387,0,0,0,0,0,0
3.969997,-1,-0.02745281,-1,0.4009901,0,0,0,0,0,0,0,0,0,0,0,0,0,0,-0.0009995014,-0.1234486,0.05272797,0.009277344,-0.9957275,-0.2043457,0,0,0,0,0,0
3.979997,-1,-0.06669273,-1,0.4009901,0,0,0,0,0,0,0,0,0,0,0,0,0,0,0.008995879,-0.06671944,0.0224897,0.01049805,-0.9971924,-0.2059326,0,0,0,0,0,0
3.989997,-1,-0.1453634,-1,0.4009901,0,0,0,0,0,0,0,0,0,0,0,0,0,0,0.0254894,-0.1431902,0.03423577,0.01538086,-1.015259,-0.2021484,0,0,0,0,0,0
3.999997,-1,-0.2244794,-1,0.4009901,0,0,0,0,0,0,0,0,0,0,0,0,0,0,0.002748965,-0.07372224,0.01224539,0.01611328,-1.027588,-0.1953125,0,0,0,0,0,0
4.009997,-1,-0.336352,-1,0.4009901,0,0,0,0,0,0,0,0,0,0,0,0,0,0,-0.0172421,-0.07321647,0.01224439,0.03381348,-1.032349,-0.1844482,0,0,0,0,0,0
4.019997,-0.9721088,-0.4801027,-1,0.4009901,0,0,0,0,0,0,0,0,0,0,0,0,0,0,-0.07571533,-0.1426846,0.02448878,0.03515625,-1.014526,-0.1849365,0,0,0,0,0,0
4.029997,-0.925144,-0.5757334,-1,0.4009901,0,0,0,0,0,0,0,0,0,0,0,0,0,0,-0.09221169,-0.1376925,0.03448577,0.02697754,-1.032104,-0.1783447,0,0,0,0,0,0
4.039998,-0.8857571,-0.6394928,-1,0.4009901,0,0,0,0,0,0,0,0,0,0,0,0,0,0,-0.05622425,-0.06547002,0.02723753,0.03076172,-1.011597,-0.1872559,0,0,0,0,0,0
4.049998,-0.8302128,-0.7110435,-1,0.4009901,0,0,0,0,0,0,0,0,0,0,0,0,0,0,-0.1119908,-0.12833,0.06593341,0.0234375,-1.00415,-0.2164307,0,0,0,0,0,0
4.059998,-0.7748705,-0.7748705,-1,0.3605264,0,0,0,0,0,0,0,0,0,0,0,0,0,0,-0.1224539,-0.1404471,0.08771697,0.02111816,-0.989624,-0.21521,0,0,0,0,0,0
4.069998,-0.7510855,-0.7987735,-1,0.336352,0,0,0,0,0,0,0,0,0,0,0,0,0,0,-0.1224389,-0.1491757,0.09745143,0.01489258,-0.9831543,-0.2203369,0,0,0,0,0,0
4.079998,-0.7038234,-0.846974,-1,0.3283107,0,0,0,0,0,0,0,0,0,0,0,0,0,0,-0.05772826,-0.08146932,0.05023109,0.009887695,-0.9813232,-0.2252197,0,0,0,0,0,0
4.089999,-0.62455,-0.9109678,-1,0.3202776,0,0,0,0,0,0,0,0,0,0,0,0,0,0,-0.1215253,-0.1686398,0.08896211,0.002441406,-0.982666,-0.2231445,0,0,0,0,0,0
4.099999,-0.552572,-0.9501057,-1,0.3202776,0,0,0,0,0,0,0,0,0,0,0,0,0,0,-0.0622215,-0.09145811,0.0397318,-0.002563477,-0.9692383,-0.2235107,0,0,0,0,0,0
4.109999,-0.4888099,-0.9815939,-1,0.3202776,0,0,0,0,0,0,0,0,0,0,0,0,0,0,-0.08996273,-0.1899208,0.06022496,-0.03173828,-0.9622803,-0.2176514,0,0,0,0,0,0
4.119999,-0.4493711,-1,-1,0.3202776,0,0,0,0,0,0,0,0,0,0,0,0,0,0,-0.05397719,-0.184423,0.05347763,-0.01586914,-0.9516602,-0.2077637,0,0,0,0,0,0
4.13,-0.4009901,-1,-1,0.3202776,0,0,0,0,0,0,0,0,0,0,0,0,0,0,-0.007247271,-0.09146556,0.01999247,-0.01623535,-0.9675293,-0.2133789,0,0,0,0,0,0
4.14,-0.3444016,-1,-1,0.3202776,0,0,0,0,0,0,0,0,0,0,0,0,0,0,0.008803837,-0.1722921,0.02931445,-0.01977539,-0.9820557,-0.2169189,0,0,0,0,0,0
4.15,-0.2882255,-1,-1,0.3283107,0,0,0,0,0,0,0,0,0,0,0,0,0,0,0.01731816,-0.1701248,0.02216197,-0.03198242,-0.9908447,-0.210083,0,0,0,0,0,0
4.16,-0.2244794,-1,-1,0.4091095,0,0,0,0,0,0,0,0,0,0,0,0,0,0,0.01449393,-0.1769262,0.01474384,-0.03100586,-0.9851074,-0.2180176,0,0,0,0,0,0
4.170001,-0.1690417,-1,-1,0.4498426,0,0,0,0,0,0,0,0,0,0,0,0,0,0,0.02349028,-0.1856726,0.01049562,-0.02856445,-0.9871826,-0.2288818,0,0,0,0,0,0
4.180001,-0.1059862,-1,-1,0.4825947,0,0,0,0,0,0,0,0,0,0,0,0,0,0,0.01074595,-0.09021603,0.01549417,-0.007080078,-0.9833984,-0.2098389,0,0,0,0,0,0
4.190001,-0.01960851,-1,-1,0.4980331,0,0,0,0,0,0,0,0,0,0,0,0,0,0,0.009111891,-0.1708384,0.06078437,-0.007324219,-0.9892578,-0.239502,0,0,0,0,0,0
4.200001,0.05099206,-1,-1,0.5062566,0,0,0,0,0,0,0,0,0,0,0,0,0,0,0.01653137,-0.177732,0.1065504,-0.006958008,-1.009277,-0.2601318,0,0,0,0,0,0
4.210001,0.1059862,-1,-1,0.5062566,0,0,0,0,0,0,0,0,0,0,0,0,0,0,0.007843095,-0.0911183,0.08419792,-0.01660156,-1.036987,-0.2580566,0,0,0,0,0,0
4.220002,0.1927661,-1,-1,0.5062566,0,0,0,0,0,0,0,0,0,0,0,0,0,0,-0.008996063,-0.2156599,0.2678877,-0.03796387,-1.063354,-0.2773438,0,0,0,0,0,0
4.230002,0.2483314,-1,-1,0.5062566,0,0,0,0,0,0,0,0,0,0,0,0,0,0,-0.03998356,-0.2371512,0.3478554,-0.04553223,-1.068237,-0.2844238,0,0,0,0,0,0
4.240002,0.3042357,-1,-1,0.5062566,0,0,0,0,0,0,0,0,0,0,0,0,0,0,-0.07372544,-0.2579136,0.4296063,-0.05175781,-1.045532,-0.2781982,0,0,0,0,0,0
4.250002,0.3605264,-1,-1,0.5062566,0,0,0,0,0,0,0,0,0,0,0,0,0,0,-0.04923147,-0.1421965,0.2526549,-0.06762695,-1.026733,-0.2550049,0,0,0,0,0,0
4.260003,0.433522,-1,-0.9915852,0.5057483,0,0,0,0,0,0,0,0,0,0,0,0,0,0,-0.09659353,-0.2925679,0.5263147,-0.09484863,-1.021851,-0.2390137,0,0,0,0,0,0
4.270003,0.4825947,-1,-1,0.5062566,0,0,0,0,0,0,0,0,0,0,0,0,0,0,-0.1072383,-0.3040885,0.535538,-0.1188965,-1.036621,-0.2247314,0,0,0,0,0,0
4.280003,0.523744,-1,-0.9915852,0.5057483,0,0,0,0,0,0,0,0,0,0,0,0,0,0,-0.1379426,-0.333361,0.5590167,-0.1607666,-1.039673,-0.2185059,0,0,0,0,0,0
4.290003,0.5568311,-1,-0.9915852,0.5057483,0,0,0,0,0,0,0,0,0,0,0,0,0,0,-0.08321189,-0.172421,0.2766233,-0.1851807,-1.034058,-0.2254639,0,0,0,0,0,0
4.300004,0.5884867,-0.9968243,-0.9915852,0.5057483,0,0,0,0,0,0,0,0,0,0,0,0,0,0,-0.1944268,-0.353117,0.5300504,-0.2163086,-1.017212,-0.2094727,0,0,0,0,0,0
4.310004,0.6046099,-0.9889976,-0.9915852,0.5057483,0,0,0,0,0,0,0,0,0,0,0,0,0,0,-0.2041649,-0.3518531,0.512536,-0.24646,-1.026245,-0.1998291,0,0,0,0,0,0
4.320004,0.6124081,-0.9806534,-1,0.5062566,0,0,0,0,0,0,0,0,0,0,0,0,0,0,-0.122194,-0.1656741,0.2578819,-0.2703857,-1.070313,-0.1865234,0,0,0,0,0,0
4.330004,0.6207611,-0.981203,-1,0.5062566,0,0,0,0,0,0,0,0,0,0,0,0,0,0,-0.3678459,-0.2876302,0.5307785,-0.2597656,-1.057007,-0.1794434,0,0,0,0,0,0
4.340004,0.6369415,-0.9734389,-0.9915852,0.5057483,0,0,0,0,0,0,0,0,0,0,0,0,0,0,-0.4245323,-0.2419637,0.5203912,-0.2562256,-1.029541,-0.1878662,0,0,0,0,0,0
4.350005,0.6688248,-0.9491705,-0.9915852,0.5057483,0,0,0,0,0,0,0,0,0,0,0,0,0,0,-0.5082881,-0.1944187,0.5567678,-0.2824707,-0.9838867,-0.2126465,0,0,0,0,0,0
4.360005,0.6845161,-0.9327032,-0.9915852,0.5057483,0,0,0,0,0,0,0,0,0,0,0,0,0,0,-0.543296,-0.1581899,0.5547909,-0.2617188,-1.003296,-0.2263184,0,0,0,0,0,0
4.370005,0.7002302,-0.9163012,-0.9915852,0.5057483,0,0,0,0,0,0,0,0,0,0,0,0,0,0,-0.3018863,-0.06272638,0.2661498,-0.2687988,-1.031616,-0.2193604,0,0,0,0,0,0
4.380005,0.7323431,-0.892418,-0.9915852,0.5057483,0,0,0,0,0,0,0,0,0,0,0,0,0,0,-0.6980978,-0.08762031,0.502346,-0.2794189,-1.063354,-0.2202148,0,0,0,0,0,0
4.390006,0.763997,-0.8599966,-1,0.5062566,0,0,0,0,0,0,0,0,0,0,0,0,0,0,-0.8808815,-0.05697647,0.5212827,-0.2733154,-1.000122,-0.2366943,0,0,0,0,0,0
4.400006,0.8025521,-0.8025521,-0.9915852,0.5057483,0,0,0,0,0,0,0,0,0,0,0,0,0,0,-0.5035194,-0.01149474,0.2493858,-0.3123779,-0.9289551,-0.2520752,0,0,0,0,0,0
4.410006,0.8656361,-0.7220283,-0.9915852,0.5057483,0,0,0,0,0,0,0,0,0,0,0,0,0,0,-1.039316,0.02473983,0.4653056,-0.322998,-0.8850098,-0.2832031,0,0,0,0,0,0
4.420006,0.8957555,-0.6568874,-0.9915852,0.5057483,0,0,0,0,0,0,0,0,0,0,0,0,0,0,-1.059559,0.04298212,0.4273214,-0.3348389,-0.9273682,-0.2766113,0,0,0,0,0,0
4.430007,0.9501057,-0.552572,-0.9915852,0.5057483,0,0,0,0,0,0,0,0,0,0,0,0,0,0,-1.092824,0.04290491,0.405193,-0.3448486,-0.8612061,-0.317627,0,0,0,0,0,0
4.440007,0.9885796,-0.4565729,-0.9736622,0.5047147,0,0,0,0,0,0,0,0,0,0,0,0,0,0,-1.114141,0.06783666,0.3699961,-0.3913574,-0.7442627,-0.3850098,0,0,0,0,0,0
4.450007,1,-0.3686016,-0.9647085,0.5041893,0,0,0,0,0,0,0,0,0,0,0,0,0,0,-0.53105,0.05547911,0.1411968,-0.4207764,-0.6240234,-0.4586182,0,0,0,0,0,0
4.460007,1,-0.2722459,-0.9557601,0.5036578,0,0,0,0,0,0,0,0,0,0,0,0,0,0,-0.8541422,0.161183,0.1604323,-0.4587402,-0.567627,-0.5302734,0,0,0,0,0,0
4.470007,1,-0.2483314,-0.9468173,0.5031205,0,0,0,0,0,0,0,0,0,0,0,0,0,0,-0.3341242,0.09871283,0.01849304,-0.4586182,-0.6190186,-0.5266113,0,0,0,0,0,0
4.480008,1,-0.2403741,-0.9021901,0.5003413,0,0,0,0,0,0,0,0,0,0,0,0,0,0,-0.308134,0.1124577,-0.0169936,-0.4681396,-0.7124023,-0.5240479,0,0,0,0,0,0
4.490008,1,-0.2244794,-0.7781494,0.4916665,0,0,0,0,0,0,0,0,0,0,0,0,0,0,-0.6454566,0.2516815,-0.1251779,-0.4798584,-0.7320557,-0.557251,0,0,0,0,0,0
4.500008,1,-0.2086106,-0.6386239,0.4799126,0,0,0,0,0,0,0,0,0,0,0,0,0,0,-0.712712,0.2901779,-0.218963,-0.4873047,-0.6802979,-0.5709229,0,0,0,0,0,0
4.510008,1,-0.2006854,-0.4486229,0.492391,0,0,0,0,0,0,0,0,0,0,0,0,0,0,-0.3635835,0.1719213,-0.2066554,-0.4594727,-0.6877441,-0.5905762,0,0,0,0,0,0
4.520009,1,-0.1927661,-0.2251319,0.481436,0,0,0,0,0,0,0,0,0,0,0,0,0,0,-0.6565018,0.3608643,-0.5615398,-0.4307861,-0.7020264,-0.6361084,0,0,0,0,0,0
4.530009,1,-0.1927661,-0.1392321,0.4720309,0,0,0,0,0,0,0,0,0,0,0,0,0,0,-0.5942932,0.3527623,-0.5828179,-0.3902588,-0.7640381,-0.6627197,0,0,0,0,0,0
4.540009,1,-0.1769445,-0.04971623,0.4474461,0,0,0,0,0,0,0,0,0,0,0,0,0,0,-0.8166097,0.5565992,-0.8830817,-0.362793,-0.7587891,-0.7004395,0,0,0,0,0,0
4.550009,1,-0.1532514,0.02884942,0.4006863,0,0,0,0,0,0,0,0,0,0,0,0,0,0,-0.702944,0.5811883,-0.8543196,-0.324585,-0.7648926,-0.7026367,0,0,0,0,0,0
4.560009,1,-0.1059862,0.07207371,0.3666358,0,0,0,0,0,0,0,0,0,0,0,0,0,0,-0.6439086,0.617015,-0.8268967,-0.3232422,-0.8276367,-0.7062988,0,0,0,0,0,0
4.57001,1,-0.06669273,0.08918704,0.3413711,0,0,0,0,0,0,0,0,0,0,0,0,0,0,-0.4386787,0.4294526,-0.5374793,-0.3082275,-0.8717041,-0.713623,0,0,0,0,0,0
4.58001,1,-0.01176485,0.1066129,0.3259307,0,0,0,0,0,0,0,0,0,0,0,0,0,0,-0.7614219,0.6976994,-0.8498838,-0.2745361,-0.9326172,-0.7253418,0,0,0,0,0,0
4.59001,1,0.09026043,0.1345884,0.2960945,0,0,0,0,0,0,0,0,0,0,0,0,0,0,-0.6356711,0.4988452,-0.5121095,-0.2198486,-0.9990234,-0.7020264,0,0,0,0,0,0
4.60001,1,0.1769445,0.1518247,0.2828107,0,0,0,0,0,0,0,0,0,0,0,0,0,0,-0.3397905,0.2604369,-0.2251429,-0.1813965,-0.8754883,-0.7185059,0,0,0,0,0,0
4.610011,1,0.2562958,0.157145,0.275745,0,0,0,0,0,0,0,0,0,0,0,0,0,0,-0.3252577,0.2777378,-0.2163771,-0.1497803,-0.7404785,-0.7513428,0,0,0,0,0,0
4.620011,1,0.3605264,0.1678013,0.2620055,0,0,0,0,0,0,0,0,0,0,0,0,0,0,-0.5949012,0.6027243,-0.4517501,-0.1068115,-0.6253662,-0.75,0,0,0,0,0,0
4.630011,1,0.4416777,0.1715769,0.247187,0,0,0,0,0,0,0,0,0,0,0,0,0,0,-0.5221629,0.6137004,-0.4448493,-0.07983398,-0.5512695,-0.7420654,0,0,0,0,0,0
4.640011,1,0.5149953,0.1699597,0.2390958,0,0,0,0,0,0,0,0,0,0,0,0,0,0,-0.2264147,0.3211291,-0.2106707,-0.08215332,-0.4759521,-0.7333984,0,0,0,0,0,0
4.650012,0.979558,0.5957312,0.1806303,0.2265046,0,0,0,0,0,0,0,0,0,0,0,0,0,0,-0.3531232,0.5986431,-0.3180819,-0.104126,-0.3852539,-0.7282715,0,0,0,0,0,0
4.660012,0.9634567,0.6196507,0.1877615,0.2282025,0,0,0,0,0,0,0,0,0,0,0,0,0,0,-0.1456833,0.2981135,-0.1231936,-0.08837891,-0.2971191,-0.7132568,0,0,0,0,0,0
4.670012,0.9397725,0.6598403,0.2170289,0.2348669,0,0,0,0,0,0,0,0,0,0,0,0,0,0,-0.1171997,0.5810075,-0.1789251,-0.05786133,-0.1828613,-0.6949463,0,0,0,0,0,0
4.680012,0.91571,0.691781,0.2628945,0.2443373,0,0,0,0,0,0,0,0,0,0,0,0,0,0,0.1716714,0.5607432,-0.1434343,0.01538086,-0.1538086,-0.7061768,0,0,0,0,0,0
4.690012,0.8993645,0.7075,0.3134362,0.268198,0,0,0,0,0,0,0,0,0,0,0,0,0,0,0.4248947,0.5333693,-0.1063011,0.05114746,-0.1844482,-0.6912842,0,0,0,0,0,0
4.700013,0.8836871,0.731741,0.3720016,0.2848661,0,0,0,0,0,0,0,0,0,0,0,0,0,0,0.3333474,0.2693766,-0.05197619,0.08093262,-0.3353271,-0.6534424,0,0,0,0,0,0
4.710013,0.8438712,0.7798811,0.4907395,0.3000925,0,0,0,0,0,0,0,0,0,0,0,0,0,0,0.6912394,0.5125563,-0.08096923,0.09020996,-0.5390625,-0.6408691,0,0,0,0,0,0
4.720013,0.8111632,0.8031714,0.5991454,0.2578141,0,0,0,0,0,0,0,0,0,0,0,0,0,0,0.619715,0.4875263,-0.04997654,0.04406738,-0.5981445,-0.6463623,0,0,0,0,0,0
4.730013,0.7958074,0.8277996,0.6742981,0.1879191,0,0,0,0,0,0,0,0,0,0,0,0,0,0,0.270876,0.222648,-0.001749199,0.01867676,-0.6295166,-0.6123047,0,0,0,0,0,0
4.740014,0.7798811,0.8438712,0.7618659,0.108838,0,0,0,0,0,0,0,0,0,0,0,0,0,0,0.5192832,0.3865891,0.05297759,0.01135254,-0.640625,-0.6381836,0,0,0,0,0,0
4.750014,0.7719339,0.851927,0.8157773,0.04932607,0,0,0,0,0,0,0,0,0,0,0,0,0,0,0.2856424,0.1621889,0.04773203,0.01721191,-0.6435547,-0.6149902,0,0,0,0,0,0
4.760014,0.7560699,0.8680802,0.8800479,-0.003843004,0,0,0,0,0,0,0,0,0,0,0,0,0,0,0.6422064,0.2691261,0.09970436,0.0324707,-0.7070313,-0.6251221,0,0,0,0,0,0
4.770014,0.7566752,0.8767824,0.9170319,-0.02708533,0,0,0,0,0,0,0,0,0,0,0,0,0,0,0.3325977,0.1109492,0.04822791,0.01843262,-0.7423096,-0.621582,0,0,0,0,0,0
4.780015,0.7481521,0.8761782,0.9539828,-0.03504427,0,0,0,0,0,0,0,0,0,0,0,0,0,0,0.5860972,0.1710814,0.07406472,0.05175781,-0.8074951,-0.6102295,0,0,0,0,0,0
4.790015,0.7481521,0.8761782,0.9632081,-0.03509666,0,0,0,0,0,0,0,0,0,0,0,0,0,0,0.5469453,0.119315,0.07189977,0.0760498,-0.8259277,-0.6452637,0,0,0,0,0,0
4.800015,0.7487553,0.8848926,0.9632081,-0.03509666,0,0,0,0,0,0,0,0,0,0,0,0,0,0,0.4947933,0.07171986,0.08246574,0.1043701,-0.8691406,-0.6026611,0,0,0,0,0,0
4.810015,0.7402433,0.8842907,0.9632081,-0.03509666,0,0,0,0,0,0,0,0,0,0,0,0,0,0,0.452115,0.04898513,0.1212159,0.1309814,-0.9686279,-0.5812988,0,0,0,0,0,0
4.820015,0.7323431,0.892418,0.9632081,-0.03509666,0,0,0,0,0,0,0,0,0,0,0,0,0,0,0.3218635,0.02385532,0.1951667,0.1136475,-0.9361572,-0.5986328,0,0,0,0,0,0
4.830016,0.7153703,0.8912154,0.9632081,-0.03509666,0,0,0,0,0,0,0,0,0,0,0,0,0,0,0.2847179,0.0192234,0.2020957,0.1226807,-0.9078369,-0.5877686,0,0,0,0,0,0
4.840016,0.7080969,0.9081243,0.9632081,-0.03509666,0,0,0,0,0,0,0,0,0,0,0,0,0,0,0.1217879,0.006689108,0.09941398,0.1004639,-0.8737793,-0.6025391,0,0,0,0,0,0
4.850016,0.6923701,0.9244941,0.9539828,-0.03504427,0,0,0,0,0,0,0,0,0,0,0,0,0,0,0.2569675,0.01074549,0.2156005,0.0769043,-0.8199463,-0.6176758,0,0,0,0,0,0
4.860016,0.6845161,0.9327032,0.8709575,-0.03453135,0,0,0,0,0,0,0,0,0,0,0,0,0,0,0.2808827,-0.009245928,0.227655,0.04504395,-0.7792969,-0.6314697,0,0,0,0,0,0
4.870017,0.6760875,0.9321206,0.7325945,-0.03346879,0,0,0,0,0,0,0,0,0,0,0,0,0,0,0.1517052,-0.02249336,0.1094677,0.04309082,-0.762085,-0.6499023,0,0,0,0,0,0
4.880017,0.6760875,0.9321206,0.4928418,-0.03059018,0,0,0,0,0,0,0,0,0,0,0,0,0,0,0.3200063,-0.07391702,0.1915887,0.006347656,-0.7648926,-0.6090088,0,0,0,0,0,0
4.890017,0.6760875,0.9321206,0.2895127,-0.002866462,0,0,0,0,0,0,0,0,0,0,0,0,0,0,0.1501589,-0.04290255,0.08649708,-0.008300781,-0.8186035,-0.59021,0,0,0,0,0,0
4.900017,0.6760875,0.9321206,0.05050793,0.005153871,0,0,0,0,0,0,0,0,0,0,0,0,0,0,0.2484908,-0.1036481,0.154992,-0.003662109,-0.8625488,-0.5822754,0,0,0,0,0,0
4.910017,0.6760875,0.9321206,0,0,0,0,0,0,0,0,0,0,0,0,0,0,0,0,0.1964737,-0.11226,0.1123556,-0.00378418,-0.8398438,-0.5726318,0,0,0,0,0,0
4.920018,0.6760875,0.9321206,0,0,0,0,0,0,0,0,0,0,0,0,0,0,0,0,0.1672629,-0.1074781,0.06126503,-0.02416992,-0.8195801,-0.5722656,0,0,0,0,0,0
4.930018,0.6760875,0.9321206,0,0,0,0,0,0,0,0,0,0,0,0,0,0,0,0,0.1700936,-0.09341793,0.0207406,-0.02209473,-0.8131104,-0.5629883,0,0,0,0,0,0
4.940018,0.6760875,0.9321206,0,0,0,0,0,0,0,0,0,0,0,0,0,0,0,0,0.154992,-0.08669393,0.002556678,-0.03637695,-0.8414307,-0.5627441,0,0,0,0,0,0
4.950018,0.6760875,0.9321206,-0.02120331,0.0255902,0,0,0,0,0,0,0,0,0,0,0,0,0,0,0.1239481,-0.09870891,-0.01574352,-0.0435791,-0.8288574,-0.5777588,0,0,0,0,0,0
4.960019,0.6760875,0.9321206,-0.09339525,0.1099989,0,0,0,0,0,0,0,0,0,0,0,0,0,0,0.1104494,-0.09895469,-0.01774187,0.0002441406,-0.9133301,-0.5715332,0,0,0,0,0,0
4.970019,0.6760875,0.9321206,-0.1806303,0.2265046,0,0,0,0,0,0,0,0,0,0,0,0,0,0,0.1165848,-0.09895793,0.007131646,-0.07165527,-0.7895508,-0.6306152,0,0,0,0,0,0
4.980019,0.6760875,0.9321206,-0.224721,0.3133434,0,0,0,0,0,0,0,0,0,0,0,0,0,0,0.1431124,-0.09888117,0.01499374,-0.05151367,-0.8140869,-0.6235352,0,0,0,0,0,0
4.990019,0.6760875,0.9321206,-0.2605052,0.4093654,0,0,0,0,0,0,0,0,0,0,0,0,0,0,0.07870754,-0.0624663,0.003498113,-0.08288574,-0.8093262,-0.5968018,0,0,0,0,0,0
5.00002,0.6760875,0.9321206,-0.328751,0.5455098,0,0,0,0,0,0,0,0,0,0,0,0,0,0,0.16818,-0.1674301,-0.0142437,-0.06469727,-0.8178711,-0.5834961,0,0,0,0,0,0
5.01002,0.6760875,0.9321206,-0.3698559,0.6537858,0,0,0,0,0,0,0,0,0,0,0,0,0,0,0.1019569,-0.189671,-0.03723454,-0.0994873,-0.8497314,-0.5742188,0,0,0,0,0,0
5.02002,0.6760875,0.9321206,-0.4254829,0.7551363,0,0,0,0,0,0,0,0,0,0,0,0,0,0,0.02099039,-0.1234435,-0.0172421,-0.08996582,-0.8548584,-0.5637207,0,0,0,0,0,0
5.03002,0.6760875,0.9321206,-0.4746646,0.8826407,0,0,0,0,0,0,0,0,0,0,0,0,0,0,0.01672374,-0.2794002,0.0004803613,-0.06542969,-0.8668213,-0.5401611,0,0,0,0,0,0
5.04002,0.6760875,0.9321206,-0.4769163,0.9183595,0,0,0,0,0,0,0,0,0,0,0,0,0,0,0.006016419,-0.2987834,0.02168218,-0.04187012,-0.857666,-0.52771,0,0,0,0,0,0
5.050021,0.6760875,0.9321206,-0.4043609,0.9225709,0,0,0,0,0,0,0,0,0,0,0,0,0,0,0.001749199,-0.1676732,0.003998169,-0.03979492,-0.8365479,-0.5556641,0,0,0,0,0,0
5.060021,0.6760875,0.9321206,-0.1975608,0.9025819,0,0,0,0,0,0,0,0,0,0,0,0,0,0,0.04947968,-0.325614,0.01249491,-0.09411621,-0.8143311,-0.5311279,0,0,0,0,0,0
5.070021,0.6760875,0.9321206,-0.0729394,0.8714339,0,0,0,0,0,0,0,0,0,0,0,0,0,0,0.08971225,-0.3123697,0.02773836,-0.07495117,-0.800293,-0.5332031,0,0,0,0,0,0
5.080021,0.6845161,0.9327032,0.003761105,0.7785488,0,0,0,0,0,0,0,0,0,0,0,0,0,0,0.07397215,-0.1501934,0.03598645,-0.04248047,-0.8946533,-0.5093994,0,0,0,0,0,0
5.090022,0.6929545,0.9332856,0.06903172,0.6503515,0,0,0,0,0,0,0,0,0,0,0,0,0,0,0.2153126,-0.2549874,0.1354236,-0.1123047,-0.8800049,-0.505127,0,0,0,0,0,0
5.100022,0.7008187,0.9250807,0.08115632,0.5680943,0,0,0,0,0,0,0,0,0,0,0,0,0,0,0.2660576,-0.2256457,0.2150712,-0.08813477,-0.8479004,-0.4891357,0,0,0,0,0,0
5.110022,0.7171578,0.9174812,0.09565213,0.4320838,0,0,0,0,0,0,0,0,0,0,0,0,0,0,0.3883374,-0.2039151,0.3216152,-0.09570313,-0.8620605,-0.5047607,0,0,0,0,0,0
5.120022,0.7250457,0.9093114,0.09933856,0.3160772,0,0,0,0,0,0,0,0,0,0,0,0,0,0,0.4688049,-0.1836732,0.4070807,-0.09838867,-0.8786621,-0.5,0,0,0,0,0,0
5.130023,0.7335345,0.9099035,0.09738104,0.2131855,0,0,0,0,0,0,0,0,0,0,0,0,0,0,0.2633794,-0.08071303,0.2536339,-0.1173096,-0.8942871,-0.4794922,0,0,0,0,0,0
5.140023,0.7335345,0.9099035,0.105041,0.1470574,0,0,0,0,0,0,0,0,0,0,0,0,0,0,0.5342771,-0.1359434,0.590753,-0.1569824,-0.8825684,-0.4525146,0,0,0,0,0,0
5.150023,0.7414404,0.9017519,0.1221022,0.1460439,0,0,0,0,0,0,0,0,0,0,0,0,0,0,0.5153769,-0.1128365,0.6444765,-0.1558838,-0.8602295,-0.4577637,0,0,0,0,0,0
5.160023,0.7493544,0.8936152,0.1287792,0.1482175,0,0,0,0,0,0,0,0,0,0,0,0,0,0,0.5292361,-0.09995007,0.7821105,-0.1647949,-0.8045654,-0.458374,0,0,0,0,0,0
5.170023,0.7493544,0.8936152,0.1287792,0.1482175,0,0,0,0,0,0,0,0,0,0,0,0,0,0,0.5442731,-0.08571415,0.8481464,-0.1605225,-0.7371826,-0.4527588,0,0,0,0,0,0
5.180024,0.7578744,0.8942115,0.1287792,0.1482175,0,0,0,0,0,0,0,0,0,0,0,0,0,0,0.3068595,-0.03823249,0.4392988,-0.1668701,-0.7169189,-0.4133301,0,0,0,0,0,0
5.190024,0.7572768,0.885493,0.1287792,0.1482175,0,0,0,0,0,0,0,0,0,0,0,0,0,0,0.6559986,-0.07754721,0.7875254,-0.2089844,-0.7647705,-0.3692627,0,0,0,0,0,0
5.200024,0.7572768,0.885493,0.1221022,0.1460439,0,0,0,0,0,0,0,0,0,0,0,0,0,0,0.6854637,-0.09321117,0.6809646,-0.2452393,-0.8491211,-0.3325195,0,0,0,0,0,0
5.210024,0.7658077,0.8860916,0.1113169,0.149212,0,0,0,0,0,0,0,0,0,0,0,0,0,0,0.2818709,-0.05197619,0.2184,-0.291626,-0.9118652,-0.2996826,0,0,0,0,0,0
5.220025,0.765208,0.877385,0.08422951,0.2016403,0,0,0,0,0,0,0,0,0,0,0,0,0,0,0.1846354,-0.04996897,0.09768934,-0.3143311,-0.9216309,-0.267334,0,0,0,0,0,0
5.230025,0.7817017,0.8698937,0.03907809,0.3276548,0,0,0,0,0,0,0,0,0,0,0,0,0,0,0.1966673,-0.08171575,-0.080218,-0.3161621,-0.9348145,-0.2554932,0,0,0,0,0,0
5.240025,0.7970289,0.8450909,-0.0166318,0.4557115,0,0,0,0,0,0,0,0,0,0,0,0,0,0,0.1514369,-0.05272825,-0.251894,-0.3105469,-0.9700928,-0.2443848,0,0,0,0,0,0
5.250025,0.8123925,0.8203964,-0.09735525,0.6237947,0,0,0,0,0,0,0,0,0,0,0,0,0,0,0.155435,-0.003498764,-0.3638479,-0.2845459,-0.9960938,-0.2475586,0,0,0,0,0,0
5.260026,0.8284124,0.8044004,-0.1750852,0.7189671,0,0,0,0,0,0,0,0,0,0,0,0,0,0,0.1713238,0.02585333,-0.3616962,-0.2585449,-0.9915771,-0.2606201,0,0,0,0,0,0
5.270026,0.8444824,0.7884504,-0.2620449,0.7785393,0,0,0,0,0,0,0,0,0,0,0,0,0,0,0.1974735,0.05255442,-0.3235549,-0.2489014,-0.989624,-0.2840576,0,0,0,0,0,0
5.280026,0.8761782,0.7481521,-0.3743826,0.8220978,0,0,0,0,0,0,0,0,0,0,0,0,0,0,0.2778628,0.07346354,-0.2321322,-0.204834,-0.9807129,-0.3063965,0,0,0,0,0,0
5.290026,0.8918174,0.7238518,-0.4398319,0.844633,0,0,0,0,0,0,0,0,0,0,0,0,0,0,0.3516039,0.07771754,-0.1386915,-0.1645508,-0.9765625,-0.293457,0,0,0,0,0,0
5.300026,0.9081243,0.7080969,-0.5055906,0.8583282,0,0,0,0,0,0,0,0,0,0,0,0,0,0,0.3930444,0.082811,-0.06329991,-0.1507568,-1.001709,-0.2635498,0,0,0,0,0,0
5.310027,0.9075292,0.6996371,-0.5467253,0.8613872,0,0,0,0,0,0,0,0,0,0,0,0,0,0,0.4030821,0.09471045,-0.06097452,-0.1350098,-1.030884,-0.2731934,0,0,0,0,0,0
5.320027,0.9163012,0.7002302,-0.5804659,0.8726732,0,0,0,0,0,0,0,0,0,0,0,0,0,0,0.1634251,0.04647871,-0.04747825,-0.1503906,-1.041382,-0.2563477,0,0,0,0,0,0
5.330027,0.9163012,0.7002302,-0.6221352,0.8757444,0,0,0,0,0,0,0,0,0,0,0,0,0,0,0.2381501,0.08921275,-0.1359434,-0.1582031,-1.055664,-0.2563477,0,0,0,0,0,0
5.340027,0.9163012,0.7002302,-0.6400992,0.8945485,0,0,0,0,0,0,0,0,0,0,0,0,0,0,0.2136609,0.08521439,-0.1549354,-0.1728516,-1.011963,-0.2832031,0,0,0,0,0,0
5.350028,0.9163012,0.7002302,-0.6400992,0.8945485,0,0,0,0,0,0,0,0,0,0,0,0,0,0,0.1034526,0.03873226,-0.07221692,-0.1645508,-1.02356,-0.2836914,0,0,0,0,0,0
5.360028,0.9250807,0.7008187,-0.6400992,0.8945485,0,0,0,0,0,0,0,0,0,0,0,0,0,0,0.2040864,0.07060461,-0.1149894,-0.1522217,-1.039429,-0.239502,0,0,0,0,0,0
5.370028,0.9244941,0.6923701,-0.6323221,0.9027491,0,0,0,0,0,0,0,0,0,0,0,0,0,0,0.2089126,0.07846726,-0.09246121,-0.1555176,-1.071045,-0.253418,0,0,0,0,0,0
5.380028,0.9244941,0.6923701,-0.6006819,0.9268799,0,0,0,0,0,0,0,0,0,0,0,0,0,0,0.08920915,0.03773272,-0.02823707,-0.1557617,-1.046021,-0.2595215,0,0,0,0,0,0
5.390028,0.9327032,0.6845161,-0.5365938,0.9579193,0,0,0,0,0,0,0,0,0,0,0,0,0,0,0.1456893,0.08046634,-0.0469803,-0.1591797,-0.9818115,-0.21521,0,0,0,0,0,0
5.400029,0.9409287,0.6766679,-0.4811167,0.9900665,0,0,0,0,0,0,0,0,0,0,0,0,0,0,0.1291958,0.08821322,-0.06747193,-0.1655273,-1.016724,-0.2408447,0,0,0,0,0,0
5.410029,0.9397725,0.6598403,-0.4091095,1,0,0,0,0,0,0,0,0,0,0,0,0,0,0,0.04273043,0.04023157,-0.02973638,-0.1625977,-1.042358,-0.2618408,0,0,0,0,0,0
5.420029,0.9557259,0.6358177,-0.3202776,1,0,0,0,0,0,0,0,0,0,0,0,0,0,0,0.04419301,0.05801392,-0.007554918,-0.1501465,-1.060181,-0.2615967,0,0,0,0,0,0
5.430029,0.9717721,0.6118565,-0.2562958,1,0,0,0,0,0,0,0,0,0,0,0,0,0,0,0.01449336,0.04123111,0.05097665,-0.1450195,-1.085449,-0.279541,0,0,0,0,0,0
5.44003,0.9790122,0.5874074,-0.2006854,1,0,0,0,0,0,0,0,0,0,0,0,0,0,0,-0.01949107,0.00674691,0.06522013,-0.1315918,-1.081055,-0.2875977,0,0,0,0,0,0
5.45003,0.9947014,0.5552751,-0.1769445,1,0,0,0,0,0,0,0,0,0,0,0,0,0,0,-0.08271574,-0.002499059,0.2109125,-0.1075439,-1.087524,-0.2841797,0,0,0,0,0,0
5.46003,1,0.5309846,-0.1769445,1,0,0,0,0,0,0,0,0,0,0,0,0,0,0,-0.1221994,-0.01649324,0.2853815,-0.1107178,-1.11084,-0.2888184,0,0,0,0,0,0
5.47003,1,0.5149953,-0.1769445,1,0,0,0,0,0,0,0,0,0,0,0,0,0,0,-0.08721716,-0.02399097,0.1856801,-0.1369629,-1.088745,-0.2890625,0,0,0,0,0,0
5.480031,1,0.5067592,-0.1927661,1,0,0,0,0,0,0,0,0,0,0,0,0,0,0,-0.09896274,-0.04623259,0.2191675,-0.1739502,-1.054199,-0.2972412,0,0,0,0,0,0
5.490031,1,0.4743927,-0.2324234,1,0,0,0,0,0,0,0,0,0,0,0,0,0,0,-0.2171505,-0.154929,0.5040191,-0.1972656,-1.034424,-0.309082,0,0,0,0,0,0
5.500031,1,0.4416777,-0.2802319,1,0,0,0,0,0,0,0,0,0,0,0,0,0,0,-0.1204448,-0.1084503,0.2588814,-0.1864014,-1.016846,-0.300415,0,0,0,0,0,0
5.510031,1,0.3766855,-0.3636475,0.9110739,0,0,0,0,0,0,0,0,0,0,0,0,0,0,-0.2361609,-0.2601525,0.5020605,-0.2017822,-0.9643555,-0.270752,0,0,0,0,0,0
5.520031,1,0.3283107,-0.4566368,0.8547304,0,0,0,0,0,0,0,0,0,0,0,0,0,0,-0.2268868,-0.2926043,0.4735136,-0.2307129,-0.9206543,-0.2762451,0,0,0,0,0,0
5.530032,1,0.2722459,-0.5587841,0.8010541,0,0,0,0,0,0,0,0,0,0,0,0,0,0,-0.1231936,-0.1521803,0.2156512,-0.2491455,-0.9073486,-0.255249,0,0,0,0,0,0
5.540032,1,0.2006854,-0.7044883,0.7438453,0,0,0,0,0,0,0,0,0,0,0,0,0,0,-0.2513739,-0.3087915,0.3872008,-0.2567139,-0.8929443,-0.2609863,0,0,0,0,0,0
5.550032,1,0.1374799,-0.7935843,0.6830353,0,0,0,0,0,0,0,0,0,0,0,0,0,0,-0.2696375,-0.330612,0.3783424,-0.2802734,-0.8325195,-0.2780762,0,0,0,0,0,0
5.560032,1,0.07454614,-0.876359,0.6305027,0,0,0,0,0,0,0,0,0,0,0,0,0,0,-0.1169464,-0.1686728,0.1546791,-0.2871094,-0.8208008,-0.2709961,0,0,0,0,0,0
5.570033,1,0,-0.9345874,0.5846143,0,0,0,0,0,0,0,0,0,0,0,0,0,0,-0.1012037,-0.1664238,0.1199451,-0.2706299,-0.8045654,-0.2648926,0,0,0,0,0,0
5.580033,1,-0.09026043,-0.9573756,0.5283443,0,0,0,0,0,0,0,0,0,0,0,0,0,0,-0.07771441,-0.1539295,0.06097208,-0.2753906,-0.7843018,-0.2786865,0,0,0,0,0,0
5.590033,1,-0.1611441,-0.9900665,0.4811167,0,0,0,0,0,0,0,0,0,0,0,0,0,0,-0.1155276,-0.2693083,-0.003153091,-0.2519531,-0.7969971,-0.2875977,0,0,0,0,0,0
5.600033,1,-0.2086106,-1,0.4249173,0,0,0,0,0,0,0,0,0,0,0,0,0,0,-0.07996635,-0.2468967,-0.1241989,-0.2583008,-0.8248291,-0.2897949,0,0,0,0,0,0
5.610034,1,-0.2324234,-1,0.3766855,0,0,0,0,0,0,0,0,0,0,0,0,0,0,-0.05912872,-0.2152933,-0.1820372,-0.2668457,-0.8599854,-0.2807617,0,0,0,0,0,0
5.620034,1,-0.2722459,-1,0.2403741,0,0,0,0,0,0,0,0,0,0,0,0,0,0,-0.124678,-0.1273879,-0.3142512,-0.274292,-0.9395752,-0.2801514,0,0,0,0,0,0
5.630034,1,-0.2722459,-1,0.1532514,0,0,0,0,0,0,0,0,0,0,0,0,0,0,-0.1660445,-0.07815945,-0.3387405,-0.2794189,-0.9736328,-0.2670898,0,0,0,0,0,0
5.640034,1,-0.2802319,-1,0.05884144,0,0,0,0,0,0,0,0,0,0,0,0,0,0,-0.1012682,-0.01130328,-0.1619368,-0.2717285,-1.001465,-0.2557373,0,0,0,0,0,0
5.650034,1,-0.2802319,-0.9910053,-0.05092122,0,0,0,0,0,0,0,0,0,0,0,0,0,0,-0.2462417,0.01847318,-0.3158463,-0.2717285,-1.013306,-0.2792969,0,0,0,0,0,0
5.660035,1,-0.2722459,-0.8902979,-0.09635258,0,0,0,0,0,0,0,0,0,0,0,0,0,0,-0.2836315,0.04648046,-0.3131194,-0.2712402,-1.002075,-0.2784424,0,0,0,0,0,0
5.670035,1,-0.2244794,-0.7440153,-0.1233794,0,0,0,0,0,0,0,0,0,0,0,0,0,0,-0.2940094,0.06266559,-0.2938173,-0.2719727,-0.9700928,-0.3110352,0,0,0,0,0,0
5.680035,1,-0.1927661,-0.671696,-0.1431483,0,0,0,0,0,0,0,0,0,0,0,0,0,0,-0.3246636,0.06512892,-0.3145906,-0.2532959,-0.9334717,-0.3404541,0,0,0,0,0,0
5.690035,1,-0.1532514,-0.5632131,-0.1523155,0,0,0,0,0,0,0,0,0,0,0,0,0,0,-0.3534265,0.05816759,-0.3666135,-0.2440186,-0.9040527,-0.3603516,0,0,0,0,0,0
5.700036,1,-0.1217254,-0.4920985,-0.1617387,0,0,0,0,0,0,0,0,0,0,0,0,0,0,-0.3507547,0.06860533,-0.3813378,-0.2305908,-0.90625,-0.3469238,0,0,0,0,0,0
5.710036,1,-0.07454614,-0.4124031,-0.161662,0,0,0,0,0,0,0,0,0,0,0,0,0,0,-0.1656876,0.04873165,-0.1899285,-0.2094727,-0.8840332,-0.3444824,0,0,0,0,0,0
5.720036,1,0.02745281,-0.2913232,-0.1531699,0,0,0,0,0,0,0,0,0,0,0,0,0,0,-0.2073822,0.1245484,-0.3287203,-0.21875,-0.838623,-0.3409424,0,0,0,0,0,0
5.730036,1,0.113854,-0.2000926,-0.1360629,0,0,0,0,0,0,0,0,0,0,0,0,0,0,-0.0784719,0.1531333,-0.2905817,-0.1936035,-0.8399658,-0.3730469,0,0,0,0,0,0
5.740036,1,0.2403741,-0.1386969,-0.1198905,0,0,0,0,0,0,0,0,0,0,0,0,0,0,0.03829275,0.08488996,-0.1024216,-0.1704102,-0.8762207,-0.4020996,0,0,0,0,0,0
5.750037,1,0.4498426,0,0,0,0,0,0,0,0,0,0,0,0,0,0,0,0,0.1889309,0.1960237,-0.1295547,-0.1850586,-0.9346924,-0.3820801,0,0,0,0,0,0
5.760037,0.9784681,0.5790934,0,0,0,0,0,0,0,0,0,0,0,0,0,0,0,0,0.2090649,0.2141972,-0.08217678,-0.2124023,-0.921875,-0.3997803,0,0,0,0,0,0
5.770037,0.9391946,0.6514414,0,0,0,0,0,0,0,0,0,0,0,0,0,0,0,0,0.210412,0.2364014,-0.05197823,-0.246582,-0.9088135,-0.3731689,0,0,0,0,0,0
5.780037,0.9233196,0.6755022,0,0,0,0,0,0,0,0,0,0,0,0,0,0,0,0,0.1669745,0.2344486,-0.05724727,-0.2265625,-0.8765869,-0.3603516,0,0,0,0,0,0
5.790038,0.9075292,0.6996371,0,0,0,0,0,0,0,0,0,0,0,0,0,0,0,0,0.1502182,0.2567838,-0.1072384,-0.2053223,-0.876709,-0.3441162,0,0,0,0,0,0
5.800038,0.9081243,0.7080969,0,0,0,0,0,0,0,0,0,0,0,0,0,0,0,0,0.1593937,0.2883195,-0.1541457,-0.1837158,-0.8830566,-0.3460693,0,0,0,0,0,0
5.810038,0.9081243,0.7080969,0,0,0,0,0,0,0,0,0,0,0,0,0,0,0,0,0.09621377,0.1716854,-0.1189552,-0.1705322,-0.8842773,-0.338501,0,0,0,0,0,0
5.820038,0.8999631,0.7159706,0,0,0,0,0,0,0,0,0,0,0,0,0,0,0,0,0.2141519,0.3910709,-0.3273501,-0.1574707,-0.8978271,-0.3204346,0,0,0,0,0,0
5.830039,0.8918174,0.7238518,0,0,0,0,0,0,0,0,0,0,0,0,0,0,0,0,0.1079594,0.2201671,-0.1979255,-0.1420898,-0.901001,-0.3120117,0,0,0,0,0,0
5.840039,0.8755721,0.7396386,0,0,0,0,0,0,0,0,0,0,0,0,0,0,0,0,0.2083922,0.4683011,-0.4138625,-0.1162109,-0.8997803,-0.2994385,0,0,0,0,0,0
5.850039,0.8674718,0.7475448,0,0,0,0,0,0,0,0,0,0,0,0,0,0,0,0,0.2338426,0.4982687,-0.4172649,-0.09216309,-0.9251709,-0.2825928,0,0,0,0,0,0
5.860039,0.8599966,0.763997,0,0,0,0,0,0,0,0,0,0,0,0,0,0,0,0,0.3076214,0.5482712,-0.3825907,-0.07824707,-0.993042,-0.2836914,0,0,0,0,0,0
5.870039,0.8513149,0.7633857,0.03807466,0.01099935,0,0,0,0,0,0,0,0,0,0,0,0,0,0,0.1654377,0.2776454,-0.1659375,-0.0793457,-1.023682,-0.2930908,0,0,0,0,0,0
5.88004,0.851927,0.7719339,0.1380615,0.03503053,0,0,0,0,0,0,0,0,0,0,0,0,0,0,0.2936155,0.535005,-0.3216027,-0.0690918,-1.047852,-0.2926025,0,0,0,0,0,0
5.89004,0.8432577,0.771321,0.228977,0.05000648,0,0,0,0,0,0,0,0,0,0,0,0,0,0,0.2288261,0.4793348,-0.3060622,-0.06005859,-1.0625,-0.2929688,0,0,0,0,0,0
5.90004,0.8438712,0.7798811,0.3302151,0.06967841,0,0,0,0,0,0,0,0,0,0,0,0,0,0,0.08895926,0.2233977,-0.1531798,-0.05993652,-1.052246,-0.3000488,0,0,0,0,0,0
5.91004,0.8438712,0.7798811,0.4680591,0.09091796,0,0,0,0,0,0,0,0,0,0,0,0,0,0,0.1531796,0.3878216,-0.3073593,-0.05541992,-1.022095,-0.3066406,0,0,0,0,0,0
5.920041,0.8438712,0.7798811,0.5691156,0.1025115,0,0,0,0,0,0,0,0,0,0,0,0,0,0,0.05972751,0.1634385,-0.1589402,-0.05041504,-1.022217,-0.3048096,0,0,0,0,0,0
5.930041,0.8438712,0.7798811,0.6892866,0.1290109,0,0,0,0,0,0,0,0,0,0,0,0,0,0,0.06614222,0.2628771,-0.3151987,-0.04467773,-1.019165,-0.3017578,0,0,0,0,0,0
5.940041,0.8438712,0.7798811,0.7901976,0.1323297,0,0,0,0,0,0,0,0,0,0,0,0,0,0,0.01949215,0.2394003,-0.3241149,-0.03527832,-1.019043,-0.296875,0,0,0,0,0,0
5.950041,0.8438712,0.7798811,0.9280447,0.1359061,0,0,0,0,0,0,0,0,0,0,0,0,0,0,0,0.1087002,-0.1564284,-0.02868652,-0.9768066,-0.2980957,0,0,0,0,0,0
5.960042,0.8438712,0.7798811,1,0.1453634,0,0,0,0,0,0,0,0,0,0,0,0,0,0,0.02498976,0.2039148,-0.3063722,-0.04711914,-0.9449463,-0.2789307,0,0,0,0,0,0
5.970042,0.8438712,0.7798811,1,0.1453634,0,0,0,0,0,0,0,0,0,0,0,0,0,0,0.01749199,0.08920915,-0.1486819,0.02807617,-0.9373779,-0.2878418,0,0,0,0,0,0
5.980042,0.8438712,0.7798811,1,0.1453634,0,0,0,0,0,0,0,0,0,0,0,0,0,0,0.05532277,0.1463608,-0.2712884,0.03088379,-0.9538574,-0.3172607,0,0,0,0,0,0
5.990042,0.8438712,0.7798811,1,0.1374799,0,0,0,0,0,0,0,0,0,0,0,0,0,0,0.07710184,0.1356345,-0.2683858,0.05065918,-1,-0.30896,0,0,0,0,0,0
6.000042,0.8438712,0.7798811,1,0.1296006,0,0,0,0,0,0,0,0,0,0,0,0,0,0,0.02748741,0.05897299,-0.1394361,0.05834961,-1.039063,-0.2937012,0,0,0,0,0,0
6.010043,0.8352143,0.779267,1,0.1296006,0,0,0,0,0,0,0,0,0,0,0,0,0,0,0.0007497179,0.09196538,-0.2821438,0.05761719,-1.052734,-0.2963867,0,0,0,0,0,0
6.020043,0.8438712,0.7798811,1,0.1217254,0,0,0,0,0,0,0,0,0,0,0,0,0,0,-0.03573654,0.03673617,-0.1471946,0.05725098,-1.036865,-0.2960205,0,0,0,0,0,0
6.030043,0.8438712,0.7798811,1,0.1217254,0,0,0,0,0,0,0,0,0,0,0,0,0,0,-0.1213716,0.05841743,-0.2842829,0.07116699,-1.015259,-0.2912598,0,0,0,0,0,0
6.040043,0.8438712,0.7798811,1,0.1217254,0,0,0,0,0,0,0,0,0,0,0,0,0,0,-0.1397674,0.05795617,-0.271692,0.08825684,-0.9611816,-0.302002,0,0,0,0,0,0
6.050044,0.8438712,0.7798811,1,0.1217254,0,0,0,0,0,0,0,0,0,0,0,0,0,0,-0.06372081,0.03748283,-0.1359378,0.09985352,-0.9536133,-0.2980957,0,0,0,0,0,0
6.060044,0.8438712,0.7798811,1,0.1217254,0,0,0,0,0,0,0,0,0,0,0,0,0,0,-0.1167772,0.09982274,-0.2323438,0.1154785,-0.9595947,-0.2984619,0,0,0,0,0,0
6.070044,0.8438712,0.7798811,1,0.1217254,0,0,0,0,0,0,0,0,0,0,0,0,0,0,-0.1143936,0.1283686,-0.1905918,0.1253662,-0.9584961,-0.3023682,0,0,0,0,0,0
6.080044,0.8438712,0.7798811,1,0.1059862,0,0,0,0,0,0,0,0,0,0,0,0,0,0,-0.04474783,0.07888534,-0.06112461,0.137207,-0.9260254,-0.3083496,0,0,0,0,0,0
6.090044,0.8438712,0.7798811,1,0.04314433,0,0,0,0,0,0,0,0,0,0,0,0,0,0,-0.04348172,0.1974351,-0.06987436,0.1463623,-0.9067383,-0.2889404,0,0,0,0,0,0
6.100045,0.8438712,0.7798811,1,-0.04314433,0,0,0,0,0,0,0,0,0,0,0,0,0,0,-0.005766472,0.2161297,-0.03853963,0.1459961,-0.9058838,-0.2824707,0,0,0,0,0,0
6.110045,0.8438712,0.7798811,1,-0.1453634,0,0,0,0,0,0,0,0,0,0,0,0,0,0,0.01349382,0.122194,-0.01674233,0.1414795,-0.9125977,-0.282959,0,0,0,0,0,0
6.120045,0.8438712,0.7798811,0.8844998,-0.3701651,0,0,0,0,0,0,0,0,0,0,0,0,0,0,0.02529602,0.2464615,-0.04840012,0.1552734,-0.9329834,-0.2781982,0,0,0,0,0,0
6.130045,0.8438712,0.7798811,0.7559544,-0.5388598,0,0,0,0,0,0,0,0,0,0,0,0,0,0,0.009900061,0.2558827,-0.07783553,0.1490479,-0.9189453,-0.2614746,0,0,0,0,0,0
6.140046,0.8438712,0.7798811,0.5941345,-0.7261645,0,0,0,0,0,0,0,0,0,0,0,0,0,0,-0.00224897,0.2629074,-0.157375,0.1374512,-0.9304199,-0.2362061,0,0,0,0,0,0
6.150046,0.8438712,0.7798811,0.4635619,-0.8375278,0,0,0,0,0,0,0,0,0,0,0,0,0,0,-0.01620694,0.2650555,-0.2198007,0.1374512,-0.9390869,-0.239502,0,0,0,0,0,0
6.160046,0.8438712,0.7798811,0.356114,-0.9196351,0,0,0,0,0,0,0,0,0,0,0,0,0,0,-0.01824165,0.1351881,-0.1436842,0.1461182,-0.9423828,-0.2391357,0,0,0,0,0,0
6.170046,0.8352143,0.779267,0.2232947,-0.9676104,0,0,0,0,0,0,0,0,0,0,0,0,0,0,-0.05295806,0.2494709,-0.3198829,0.1711426,-0.954834,-0.24646,0,0,0,0,0,0
6.180047,0.8438712,0.7798811,0.1688163,-0.9932677,0,0,0,0,0,0,0,0,0,0,0,0,0,0,-0.0722221,0.2417729,-0.3447139,0.199707,-0.9696045,-0.255249,0,0,0,0,0,0
6.190047,0.8438712,0.7798811,0.1296006,-1,0,0,0,0,0,0,0,0,0,0,0,0,0,0,-0.08309922,0.2352076,-0.3670555,0.2227783,-0.9527588,-0.2648926,0,0,0,0,0,0
6.200047,0.8438712,0.7798811,0.1217254,-1,0,0,0,0,0,0,0,0,0,0,0,0,0,0,-0.08654007,0.2274802,-0.3955238,0.2261963,-0.9193115,-0.2697754,0,0,0,0,0,0
6.210047,0.8352143,0.779267,0.113854,-1,0,0,0,0,0,0,0,0,0,0,0,0,0,0,-0.04473316,0.1107083,-0.2244155,0.2331543,-0.8789063,-0.2788086,0,0,0,0,0,0
6.220047,0.8438712,0.7798811,0.113854,-1,0,0,0,0,0,0,0,0,0,0,0,0,0,0,-0.05322751,0.1941688,-0.4892961,0.2424316,-0.8464355,-0.2894287,0,0,0,0,0,0
6.230048,0.8352143,0.779267,0.113854,-1,0,0,0,0,0,0,0,0,0,0,0,0,0,0,-0.01037965,0.07704007,-0.2592606,0.2445068,-0.8392334,-0.2908936,0,0,0,0,0,0
6.240048,0.8438712,0.7798811,0.113854,-1,0,0,0,0,0,0,0,0,0,0,0,0,0,0,-0.02768049,0.1377876,-0.6263294,0.2591553,-0.8570557,-0.2932129,0,0,0,0,0,0
6.250048,0.8438712,0.7798811,0.1059862,-1,0,0,0,0,0,0,0,0,0,0,0,0,0,0,-0.01524302,0.05997253,-0.3510892,0.2750244,-0.8516846,-0.3067627,0,0,0,0,0,0
6.260048,0.8438712,0.7798811,0.1059862,-1,0,0,0,0,0,0,0,0,0,0,0,0,0,0,-0.01174497,0.1014576,-0.7084543,0.2984619,-0.8686523,-0.300415,0,0,0,0,0,0
6.270049,0.8438712,0.7798811,0.1135404,-0.9827118,0,0,0,0,0,0,0,0,0,0,0,0,0,0,0.01024598,0.08621392,-0.6659718,0.3355713,-0.8979492,-0.3126221,0,0,0,0,0,0
6.280049,0.8438712,0.7798811,0.1275024,-0.9002443,0,0,0,0,0,0,0,0,0,0,0,0,0,0,0.02873918,0.03248777,-0.2908905,0.3758545,-0.9241943,-0.3120117,0,0,0,0,0,0
6.290049,0.8352143,0.779267,0.1701249,-0.7825745,0,0,0,0,0,0,0,0,0,0,0,0,0,0,0.08492532,0.03683063,-0.4846788,0.4030762,-0.9445801,-0.3129883,0,0,0,0,0,0
6.300049,0.8438712,0.7798811,0.1902095,-0.7198125,0,0,0,0,0,0,0,0,0,0,0,0,0,0,0.08594427,0.01426329,-0.4195142,0.4182129,-0.963501,-0.3087158,0,0,0,0,0,0
6.31005,0.8352143,0.779267,0.2099685,-0.6667421,0,0,0,0,0,0,0,0,0,0,0,0,0,0,0.03598059,-0.00624663,-0.1704081,0.4318848,-0.9725342,-0.3237305,0,0,0,0,0,0
6.32005,0.8438712,0.7798811,0.2263517,-0.5784543,0,0,0,0,0,0,0,0,0,0,0,0,0,0,0.04722837,-0.02523844,-0.2308943,0.4238281,-0.9526367,-0.3248291,0,0,0,0,0,0
6.33005,0.8352143,0.779267,0.2425112,-0.5096249,0,0,0,0,0,0,0,0,0,0,0,0,0,0,0.02698866,-0.0314869,-0.1279458,0.4208984,-0.9382324,-0.3214111,0,0,0,0,0,0
6.34005,0.8352143,0.779267,0.258341,-0.4512356,0,0,0,0,0,0,0,0,0,0,0,0,0,0,0.01174462,-0.01699222,0.002748741,0.4240723,-0.9033203,-0.3266602,0,0,0,0,0,0
6.35005,0.8352143,0.779267,0.2720826,-0.3862901,0,0,0,0,0,0,0,0,0,0,0,0,0,0,0.0673749,-0.04165528,0.1168345,0.4291992,-0.8249512,-0.3133545,0,0,0,0,0,0
6.360051,0.8185484,0.7866051,0.2671899,-0.3529546,0,0,0,0,0,0,0,0,0,0,0,0,0,0,0.1196994,-0.05513053,0.1851717,0.4224854,-0.8253174,-0.2878418,0,0,0,0,0,0
6.370051,0.763997,0.8599966,0.2455298,-0.3093038,0,0,0,0,0,0,0,0,0,0,0,0,0,0,0.1649248,-0.07896408,0.2653791,0.4013672,-0.836792,-0.2879639,0,0,0,0,0,0
6.380051,0.7153703,0.8912154,0.2159897,-0.2646635,0,0,0,0,0,0,0,0,0,0,0,0,0,0,0.1814243,-0.1037065,0.3066218,0.3691406,-0.8686523,-0.2636719,0,0,0,0,0,0
6.390051,0.6682492,0.9403506,0.1735322,-0.195568,0,0,0,0,0,0,0,0,0,0,0,0,0,0,0.08146932,-0.06847422,0.1736846,0.3481445,-0.9039307,-0.2514648,0,0,0,0,0,0
6.400052,0.5957312,0.979558,0.1173616,-0.1129329,0,0,0,0,0,0,0,0,0,0,0,0,0,0,0.1324393,-0.1611762,0.3795761,0.3605957,-0.9191895,-0.213623,0,0,0,0,0,0
6.410052,0.547518,1,0.07241385,-0.05084377,0,0,0,0,0,0,0,0,0,0,0,0,0,0,0.1318092,-0.1651028,0.3720534,0.3592529,-0.8903809,-0.1896973,0,0,0,0,0,0
6.420052,0.4990265,1,0.02946557,-0.008908195,0,0,0,0,0,0,0,0,0,0,0,0,0,0,0.07871395,-0.08721006,0.1686728,0.3422852,-0.8706055,-0.1853027,0,0,0,0,0,0
6.430052,0.4416777,1,0,0,0,0,0,0,0,0,0,0,0,0,0,0,0,0,0.1844232,-0.1721782,0.260141,0.3453369,-0.8768311,-0.1972656,0,0,0,0,0,0
6.440053,0.4091095,1,0,0,0,0,0,0,0,0,0,0,0,0,0,0,0,0,0.198917,-0.1601833,0.2141609,0.3150635,-0.9060059,-0.1829834,0,0,0,0,0,0
6.450053,0.3524597,1,0.04160042,0.05168537,0,0,0,0,0,0,0,0,0,0,0,0,0,0,0.091708,-0.06746911,0.08721006,0.3088379,-0.8983154,-0.2233887,0,0,0,0,0,0
6.460053,0.2802319,1,0.08117762,0.1844946,0,0,0,0,0,0,0,0,0,0,0,0,0,0,0.1757523,-0.1166812,0.1431699,0.3189697,-0.9349365,-0.2143555,0,0,0,0,0,0
6.470053,0.2244794,1,0.1002409,0.3250235,0,0,0,0,0,0,0,0,0,0,0,0,0,0,0.1470925,-0.1044617,0.1456309,0.3109131,-0.9321289,-0.2270508,0,0,0,0,0,0
6.480053,0.1769445,1,0.1120342,0.4786918,0,0,0,0,0,0,0,0,0,0,0,0,0,0,0.06796888,-0.05272585,0.08071303,0.3016357,-0.9346924,-0.2320557,0,0,0,0,0,0
6.490054,0.1453634,1,0.1341996,0.634728,0,0,0,0,0,0,0,0,0,0,0,0,0,0,0.06322104,-0.05397528,0.08321189,0.2930908,-0.9350586,-0.2279053,0,0,0,0,0,0
6.500054,0.09812176,1,0.1407742,0.8180122,0,0,0,0,0,0,0,0,0,0,0,0,0,0,0.1286964,-0.117701,0.1661806,0.2977295,-0.9281006,-0.2445068,0,0,0,0,0,0
6.510054,0.06669273,1,0.1437055,0.9282597,0,0,0,0,0,0,0,0,0,0,0,0,0,0,0.1384366,-0.1229437,0.1631753,0.3039551,-0.9477539,-0.237915,0,0,0,0,0,0
6.520054,0.035298,1,0.1296006,1,0,0,0,0,0,0,0,0,0,0,0,0,0,0,0.06343679,-0.05720845,0.07635482,0.3049316,-0.9516602,-0.2414551,0,0,0,0,0,0
6.530055,0.01176485,1,0.08240198,1,0,0,0,0,0,0,0,0,0,0,0,0,0,0,0.05789538,-0.05558879,0.07611743,0.291626,-0.9541016,-0.2408447,0,0,0,0,0,0
6.540055,-0.035298,1,0,1,0,0,0,0,0,0,0,0,0,0,0,0,0,0,0.12559,-0.1114049,0.1605717,0.2904053,-0.9666748,-0.223999,0,0,0,0,0,0
6.550055,-0.08240198,1,-0.09026043,1,0,0,0,0,0,0,0,0,0,0,0,0,0,0,0.09851548,-0.0969971,0.1745413,0.282959,-0.9686279,-0.2172852,0,0,0,0,0,0
6.560055,-0.1374799,1,-0.1769445,1,0,0,0,0,0,0,0,0,0,0,0,0,0,0,0.03273501,-0.04597894,0.09420685,0.2578125,-0.960083,-0.2254639,0,0,0,0,0,0
6.570055,-0.2244794,1,-0.2962267,1,0,0,0,0,0,0,0,0,0,0,0,0,0,0,0.04473757,-0.09122255,0.1931928,0.2592773,-0.9626465,-0.2132568,0,0,0,0,0,0
6.580056,-0.2802319,1,-0.3847782,1,0,0,0,0,0,0,0,0,0,0,0,0,0,0,0.02220305,-0.1025569,0.1995774,0.2449951,-0.9604492,-0.206665,0,0,0,0,0,0
6.590056,-0.336352,1,-0.4657205,1,0,0,0,0,0,0,0,0,0,0,0,0,0,0,0.01061124,-0.04913468,0.1061125,0.2398682,-0.9466553,-0.2213135,0,0,0,0,0,0
6.600056,-0.4009901,1,-0.5376719,0.9757748,0,0,0,0,0,0,0,0,0,0,0,0,0,0,0.06378026,-0.0994577,0.2471832,0.2363281,-0.9332275,-0.2302246,0,0,0,0,0,0
6.610056,-0.4662001,1,-0.5774385,0.9517779,0,0,0,0,0,0,0,0,0,0,0,0,0,0,0.1264475,-0.09121185,0.2868804,0.2363281,-0.9320068,-0.2104492,0,0,0,0,0,0
6.620057,-0.4990265,1,-0.6012593,0.9357346,0,0,0,0,0,0,0,0,0,0,0,0,0,0,0.151187,-0.07921684,0.2971261,0.2264404,-0.9359131,-0.2059326,0,0,0,0,0,0
6.630057,-0.531496,1,-0.6173669,0.9280418,0,0,0,0,0,0,0,0,0,0,0,0,0,0,0.07697102,-0.02998871,0.1454452,0.21521,-0.9385986,-0.1999512,0,0,0,0,0,0
6.640057,-0.5635635,0.9952292,-0.649089,0.9039459,0,0,0,0,0,0,0,0,0,0,0,0,0,0,0.1388448,-0.04655717,0.2630036,0.2034912,-0.9400635,-0.1970215,0,0,0,0,0,0
6.650057,-0.5957312,0.979558,-0.6815439,0.888797,0,0,0,0,0,0,0,0,0,0,0,0,0,0,0.2042242,-0.05761105,0.3620443,0.192627,-0.9621582,-0.1881104,0,0,0,0,0,0
6.660058,-0.6441975,0.9562932,-0.7129246,0.856306,0,0,0,0,0,0,0,0,0,0,0,0,0,0,0.1026145,-0.03148794,0.2140526,0.1838379,-0.9981689,-0.178833,0,0,0,0,0,0
6.670058,-0.6682492,0.9403506,-0.7371777,0.8407811,0,0,0,0,0,0,0,0,0,0,0,0,0,0,0.06583758,-0.02977581,0.2037019,0.1761475,-0.9919434,-0.1816406,0,0,0,0,0,0
6.680058,-0.7002302,0.9163012,-0.7609027,0.8166757,0,0,0,0,0,0,0,0,0,0,0,0,0,0,0.02698884,-0.02948765,0.1946689,0.1715088,-0.9676514,-0.1762695,0,0,0,0,0,0
6.690058,-0.7080969,0.9081243,-0.7847294,0.7926962,0,0,0,0,0,0,0,0,0,0,0,0,0,0,0.02225965,-0.03052549,0.1690629,0.1680908,-0.9501953,-0.1606445,0,0,0,0,0,0
6.700058,-0.7153703,0.8912154,-0.8173026,0.7694606,0,0,0,0,0,0,0,0,0,0,0,0,0,0,0.01983842,-0.01522483,0.06735834,0.1645508,-0.9561768,-0.1588135,0,0,0,0,0,0
6.710059,-0.731741,0.8836871,-0.8725189,0.6972183,0,0,0,0,0,0,0,0,0,0,0,0,0,0,0.06237749,-0.03485057,0.1132593,0.151123,-0.9714355,-0.164917,0,0,0,0,0,0
6.720059,-0.7402433,0.8842907,-0.9027491,0.6323221,0,0,0,0,0,0,0,0,0,0,0,0,0,0,0.04473316,-0.01749341,0.04848175,0.1387939,-0.984375,-0.1599121,0,0,0,0,0,0
6.730059,-0.7396386,0.8755721,-0.9490002,0.5360461,0,0,0,0,0,0,0,0,0,0,0,0,0,0,0.1069552,-0.02948776,0.09770914,0.1253662,-0.987915,-0.1713867,0,0,0,0,0,0
6.740059,-0.7566752,0.8767824,-0.9415871,0.4215474,0,0,0,0,0,0,0,0,0,0,0,0,0,0,0.1446894,-0.01699297,0.1239481,0.1079102,-0.9802246,-0.15625,0,0,0,0,0,0
6.75006,-0.763997,0.8599966,-0.9350984,0.3090911,0,0,0,0,0,0,0,0,0,0,0,0,0,0,0.184886,-0.01524084,0.1519064,0.1072998,-0.9797363,-0.1484375,0,0,0,0,0,0
6.76006,-0.7798811,0.8438712,-0.9306772,0.2141726,0,0,0,0,0,0,0,0,0,0,0,0,0,0,0.1984173,-0.02548945,0.1634319,0.1066895,-0.9849854,-0.1462402,0,0,0,0,0,0
6.77006,-0.7958074,0.8277996,-0.9280447,0.1359061,0,0,0,0,0,0,0,0,0,0,0,0,0,0,0.1037109,-0.01924275,0.08921641,0.1101074,-0.9979248,-0.1480713,0,0,0,0,0,0
6.78006,-0.8111632,0.8031714,-0.9262208,0.01937701,0,0,0,0,0,0,0,0,0,0,0,0,0,0,0.2020486,-0.05155485,0.1937828,0.1164551,-1.011597,-0.1508789,0,0,0,0,0,0
6.790061,-0.8358289,0.7878387,-0.9269937,-0.0892086,0,0,0,0,0,0,0,0,0,0,0,0,0,0,0.1926694,-0.07421914,0.2361517,0.1159668,-1.030029,-0.1502686,0,0,0,0,0,0
6.800061,-0.8438712,0.7798811,-0.9289709,-0.167137,0,0,0,0,0,0,0,0,0,0,0,0,0,0,0.1651808,-0.08496463,0.2633902,0.12146,-1.02002,-0.1409912,0,0,0,0,0,0
6.810061,-0.851927,0.7719339,-0.922525,-0.2374431,0,0,0,0,0,0,0,0,0,0,0,0,0,0,0.06922394,-0.050481,0.138198,0.1143799,-0.989624,-0.1489258,0,0,0,0,0,0
6.820061,-0.8593862,0.7554604,-0.898768,-0.3073709,0,0,0,0,0,0,0,0,0,0,0,0,0,0,0.1328281,-0.1087999,0.2655025,0.1002197,-0.9830322,-0.1489258,0,0,0,0,0,0
6.830061,-0.8674718,0.7475448,-0.8744653,-0.3536727,0,0,0,0,0,0,0,0,0,0,0,0,0,0,0.1493402,-0.1176806,0.2717113,0.1048584,-0.9840088,-0.15979,0,0,0,0,0,0
6.840062,-0.8755721,0.7396386,-0.8675444,-0.385143,0,0,0,0,0,0,0,0,0,0,0,0,0,0,0.08050705,-0.06366748,0.1349474,0.1090088,-0.9979248,-0.1638184,0,0,0,0,0,0
6.850062,-0.8836871,0.731741,-0.8512543,-0.4081356,0,0,0,0,0,0,0,0,0,0,0,0,0,0,0.1789254,-0.1481882,0.2943771,0.1088867,-1.003296,-0.166748,0,0,0,0,0,0
6.860062,-0.8836871,0.731741,-0.8523965,-0.4242521,0,0,0,0,0,0,0,0,0,0,0,0,0,0,0.09073061,-0.07423414,0.1512177,0.1048584,-1.012817,-0.1640625,0,0,0,0,0,0
6.870062,-0.8836871,0.731741,-0.8452258,-0.4479307,0,0,0,0,0,0,0,0,0,0,0,0,0,0,0.1892816,-0.1415287,0.311759,0.09155273,-1.031616,-0.1654053,0,0,0,0,0,0
6.880063,-0.8836871,0.731741,-0.8375278,-0.4635619,0,0,0,0,0,0,0,0,0,0,0,0,0,0,0.1970508,-0.1475142,0.3340696,0.07470703,-1.051636,-0.1625977,0,0,0,0,0,0
6.890063,-0.8836871,0.731741,-0.8305012,-0.4873833,0,0,0,0,0,0,0,0,0,0,0,0,0,0,0.1688893,-0.1632576,0.366575,0.05065918,-1.06958,-0.1428223,0,0,0,0,0,0
6.900063,-0.8836871,0.731741,-0.813434,-0.4942876,0,0,0,0,0,0,0,0,0,0,0,0,0,0,0.1175657,-0.1815765,0.3828179,0.03601074,-1.076782,-0.1503906,0,0,0,0,0,0
6.910063,-0.8836871,0.731741,-0.7964306,-0.5011685,0,0,0,0,0,0,0,0,0,0,0,0,0,0,0.02349116,-0.1124577,0.1989251,0.01867676,-1.081299,-0.1497803,0,0,0,0,0,0
6.920063,-0.8836871,0.731741,-0.7713896,-0.5155518,0,0,0,0,0,0,0,0,0,0,0,0,0,0,-0.03239218,-0.2509335,0.3651642,-0.008789063,-1.090698,-0.1154785,0,0,0,0,0,0
6.930064,-0.8836871,0.731741,-0.7720711,-0.5237668,0,0,0,0,0,0,0,0,0,0,0,0,0,0,-0.1131638,-0.2752676,0.3432385,-0.01660156,-1.080811,-0.1098633,0,0,0,0,0,0
6.940064,-0.8836871,0.731741,-0.7720711,-0.5237668,0,0,0,0,0,0,0,0,0,0,0,0,0,0,-0.08927286,-0.1388689,0.15963,-0.01416016,-1.071289,-0.1068115,0,0,0,0,0,0
6.950064,-0.8836871,0.731741,-0.7552578,-0.530617,0,0,0,0,0,0,0,0,0,0,0,0,0,0,-0.2238184,-0.2812723,0.3329788,-0.01611328,-1.033081,-0.1105957,0,0,0,0,0,0
6.960064,-0.8824759,0.7147655,-0.7385137,-0.5374524,0,0,0,0,0,0,0,0,0,0,0,0,0,0,-0.2230783,-0.2670596,0.3209212,-0.0222168,-1.011841,-0.1092529,0,0,0,0,0,0
6.970065,-0.8800389,0.680935,-0.7240089,-0.5691407,0,0,0,0,0,0,0,0,0,0,0,0,0,0,-0.1925721,-0.2458763,0.2864362,-0.02648926,-1.02124,-0.1010742,0,0,0,0,0,0
6.980065,-0.8782014,0.6556707,-0.7096313,-0.6010538,0,0,0,0,0,0,0,0,0,0,0,0,0,0,-0.1878623,-0.2324589,0.2423012,-0.04846191,-1.040405,-0.1072998,0,0,0,0,0,0
6.990065,-0.8669578,0.6215177,-0.6946303,-0.6247792,0,0,0,0,0,0,0,0,0,0,0,0,0,0,-0.09803867,-0.1028829,0.08673539,-0.04907227,-1.045532,-0.1188965,0,0,0,0,0,0
7.000065,-0.8663375,0.6131613,-0.6896929,-0.6663134,0,0,0,0,0,0,0,0,0,0,0,0,0,0,-0.2443579,-0.1896691,0.1246581,-0.0489502,-1.026855,-0.1313477,0,0,0,0,0,0
7.010066,-0.8663375,0.6131613,-0.6762221,-0.7074925,0,0,0,0,0,0,0,0,0,0,0,0,0,0,-0.1424348,-0.082962,0.03998169,-0.05285645,-0.9942627,-0.135376,0,0,0,0,0,0
7.020066,-0.8663375,0.6131613,-0.6732484,-0.7756136,0,0,0,0,0,0,0,0,0,0,0,0,0,0,-0.2861306,-0.1351938,0.0287383,-0.06347656,-0.9669189,-0.147583,0,0,0,0,0,0
7.030066,-0.8663375,0.6131613,-0.6622202,-0.852559,0,0,0,0,0,0,0,0,0,0,0,0,0,0,-0.2608123,-0.1030141,-0.01082203,-0.06762695,-0.9577637,-0.1541748,0,0,0,0,0,0
7.040066,-0.8663375,0.6131613,-0.648488,-0.8951521,0,0,0,0,0,0,0,0,0,0,0,0,0,0,-0.1192506,-0.0336762,-0.02283523,-0.07116699,-0.9598389,-0.1536865,0,0,0,0,0,0
7.050066,-0.8487775,0.6119093,-0.5929316,-0.9351605,0,0,0,0,0,0,0,0,0,0,0,0,0,0,-0.2237319,-0.05174735,-0.08484828,-0.09094238,-0.9365234,-0.1748047,0,0,0,0,0,0
7.060067,-0.8400098,0.6112748,-0.5531238,-0.9590133,0,0,0,0,0,0,0,0,0,0,0,0,0,0,-0.2097184,-0.02364361,-0.1208527,-0.08996582,-0.9449463,-0.1767578,0,0,0,0,0,0
7.070067,-0.8312508,0.6106344,-0.5047147,-0.9736622,0,0,0,0,0,0,0,0,0,0,0,0,0,0,-0.2099124,-0.005997436,-0.1544356,-0.07556152,-0.9716797,-0.1798096,0,0,0,0,0,0
7.080067,-0.8225004,0.6099883,-0.4806126,-0.9810852,0,0,0,0,0,0,0,0,0,0,0,0,0,0,-0.1950022,0.001211076,-0.1390429,-0.06176758,-0.9836426,-0.199707,0,0,0,0,0,0
7.090067,-0.8050267,0.6086787,-0.4570599,-0.9975828,0,0,0,0,0,0,0,0,0,0,0,0,0,0,-0.09181034,0.007381736,-0.06182204,-0.07397461,-0.9865723,-0.1816406,0,0,0,0,0,0
7.100068,-0.7875901,0.6073457,-0.4167845,-1,0,0,0,0,0,0,0,0,0,0,0,0,0,0,-0.1905647,0.02479611,-0.1193288,-0.06152344,-1.013184,-0.1931152,0,0,0,0,0,0
7.110068,-0.7615088,0.6053018,-0.4009901,-1,0,0,0,0,0,0,0,0,0,0,0,0,0,0,-0.2037016,0.03782997,-0.09857361,-0.04077148,-1.045776,-0.199585,0,0,0,0,0,0
7.120068,-0.7369324,0.6199591,-0.3766855,-1,0,0,0,0,0,0,0,0,0,0,0,0,0,0,-0.1301904,0.03048604,-0.03448421,-0.0357666,-1.062378,-0.1876221,0,0,0,0,0,0
7.130068,-0.6896929,0.6663134,-0.3524597,-1,0,0,0,0,0,0,0,0,0,0,0,0,0,0,-0.3306124,0.07846736,-0.03898359,-0.01391602,-1.062256,-0.1999512,0,0,0,0,0,0
7.140069,-0.6339259,0.70393,-0.3202776,-1,0,0,0,0,0,0,0,0,0,0,0,0,0,0,-0.3706887,0.09217241,-0.01291743,0.002197266,-1.053833,-0.208252,0,0,0,0,0,0
7.150069,-0.5546886,0.7486356,-0.2882255,-1,0,0,0,0,0,0,0,0,0,0,0,0,0,0,-0.20715,0.05397894,0.01038057,-0.00793457,-1.059204,-0.2210693,0,0,0,0,0,0
7.160069,-0.404598,0.7976361,-0.2562958,-1,0,0,0,0,0,0,0,0,0,0,0,0,0,0,-0.4858108,0.1293432,0.03433015,-0.02368164,-1.031006,-0.2689209,0,0,0,0,0,0
7.170069,-0.2800569,0.824825,-0.2324234,-1,0,0,0,0,0,0,0,0,0,0,0,0,0,0,-0.2626297,0.07321647,0.01299405,-0.04638672,-0.9976807,-0.2885742,0,0,0,0,0,0
7.180069,-0.1031668,0.8444397,-0.2086106,-1,0,0,0,0,0,0,0,0,0,0,0,0,0,0,-0.5235316,0.1551853,0.004248055,-0.05554199,-0.9676514,-0.300415,0,0,0,0,0,0
7.19007,0.01144552,0.8431535,-0.1927661,-1,0,0,0,0,0,0,0,0,0,0,0,0,0,0,-0.5237601,0.1544293,-0.01824165,-0.05786133,-0.9536133,-0.3068848,0,0,0,0,0,0
7.20007,0.1108348,0.8446372,-0.1769445,-1,0,0,0,0,0,0,0,0,0,0,0,0,0,0,-0.235964,0.07104294,-0.02168193,-0.06188965,-0.9211426,-0.324585,0,0,0,0,0,0
7.21007,0.2118451,0.866639,-0.1611441,-1,0,0,0,0,0,0,0,0,0,0,0,0,0,0,-0.4633991,0.1472835,-0.08021571,-0.05371094,-0.90625,-0.342041,0,0,0,0,0,0
7.22007,0.2757201,0.8970612,-0.1453634,-1,0,0,0,0,0,0,0,0,0,0,0,0,0,0,-0.2321437,0.07746452,-0.06047231,-0.04968262,-0.8931885,-0.3398438,0,0,0,0,0,0
7.230071,0.3556392,0.9105926,-0.113854,-1,0,0,0,0,0,0,0,0,0,0,0,0,0,0,-0.4175762,0.1569345,-0.1456891,-0.06018066,-0.861084,-0.3515625,0,0,0,0,0,0
7.240071,0.4038519,0.9135678,-0.09812176,-1,0,0,0,0,0,0,0,0,0,0,0,0,0,0,-0.3508531,0.1506871,-0.1651812,-0.06225586,-0.8492432,-0.3768311,0,0,0,0,0,0
7.250071,0.4362136,0.9156555,-0.09026043,-1,0,0,0,0,0,0,0,0,0,0,0,0,0,0,-0.1369373,0.06896842,-0.08745994,-0.05053711,-0.8688965,-0.3696289,0,0,0,0,0,0
7.260071,0.4769163,0.9183595,-0.08240198,-1,0,0,0,0,0,0,0,0,0,0,0,0,0,0,-0.2431274,0.11597,-0.1614506,-0.04150391,-0.8824463,-0.3792725,0,0,0,0,0,0
7.270072,0.4932755,0.9194655,-0.07454614,-1,0,0,0,0,0,0,0,0,0,0,0,0,0,0,-0.23465,0.1037058,-0.1559336,-0.03466797,-0.8677979,-0.3999023,0,0,0,0,0,0
7.280072,0.5096791,0.9205832,-0.07454614,-1,0,0,0,0,0,0,0,0,0,0,0,0,0,0,-0.1089501,0.04472952,-0.08071303,-0.0333252,-0.8540039,-0.401123,0,0,0,0,0,0
7.290072,0.5178976,0.9211461,-0.06669273,-1,0,0,0,0,0,0,0,0,0,0,0,0,0,0,-0.1831738,0.07122041,-0.1424407,-0.01867676,-0.8544922,-0.3964844,0,0,0,0,0,0
7.300072,0.5178976,0.9211461,-0.05884144,-1,0,0,0,0,0,0,0,0,0,0,0,0,0,0,-0.1416905,0.05572663,-0.1139522,-0.009155273,-0.8502197,-0.4035645,0,0,0,0,0,0
7.310072,0.5173304,0.9122391,-0.05884144,-1,0,0,0,0,0,0,0,0,0,0,0,0,0,0,-0.041481,0.01574279,-0.03848238,0.001708984,-0.8537598,-0.4128418,0,0,0,0,0,0
7.320073,0.516757,0.9033386,-0.04314433,-1,0,0,0,0,0,0,0,0,0,0,0,0,0,0,-0.03198657,0.004901883,-0.0428665,0.01049805,-0.8605957,-0.4199219,0,0,0,0,0,0
7.330073,0.516757,0.9033386,-0.035298,-1,0,0,0,0,0,0,0,0,0,0,0,0,0,0,0.0007495956,-0.008745282,-0.01499191,0.0078125,-0.866333,-0.4038086,0,0,0,0,0,0
7.340073,0.4927162,0.9105396,0,-0.9261823,0,0,0,0,0,0,0,0,0,0,0,0,0,0,0.02473989,-0.03798429,-0.03098709,0.005859375,-0.8765869,-0.4122314,0,0,0,0,0,0
7.350073,0.4311509,0.9691007,0.01144552,-0.8431535,0,0,0,0,0,0,0,0,0,0,0,0,0,0,0.06422342,-0.05522707,-0.03148688,0.02709961,-0.8875732,-0.4158936,0,0,0,0,0,0
7.360074,0.336352,1,0.003800391,-0.8246847,0,0,0,0,0,0,0,0,0,0,0,0,0,0,0.08396486,-0.06647233,-0.03098713,0.0279541,-0.8856201,-0.4200439,0,0,0,0,0,0
7.370074,0.3042357,1,0.003792826,-0.8154575,0,0,0,0,0,0,0,0,0,0,0,0,0,0,0.06422058,-0.03123569,-0.01124485,0.009521484,-0.9250488,-0.4044189,0,0,0,0,0,0
7.380074,0.2483314,1,-0.01884747,-0.7878245,0,0,0,0,0,0,0,0,0,0,0,0,0,0,0.11994,-0.07521254,-0.02173915,0.01208496,-0.953125,-0.394165,0,0,0,0,0,0
7.390074,0.2165419,1,-0.03378246,-0.7694893,0,0,0,0,0,0,0,0,0,0,0,0,0,0,0.09446043,-0.08221574,-0.01299452,0.01843262,-0.958374,-0.3933105,0,0,0,0,0,0
7.400074,0.1848525,1,-0.04869897,-0.760453,0,0,0,0,0,0,0,0,0,0,0,0,0,0,0.03698608,-0.0422341,-0.007747083,-0.004882813,-0.9332275,-0.4111328,0,0,0,0,0,0
7.410075,0.113854,1,-0.07088593,-0.7424368,0,0,0,0,0,0,0,0,0,0,0,0,0,0,0.03690867,-0.04405973,-0.01983842,-0.002441406,-0.9296875,-0.3979492,0,0,0,0,0,0
7.420075,0.05884144,1,-0.08523062,-0.7151961,0,0,0,0,0,0,0,0,0,0,0,0,0,0,0.03773272,-0.05222608,-0.0294865,-0.002807617,-0.9434814,-0.3892822,0,0,0,0,0,0
7.430075,-0.01960851,1,-0.09795606,-0.6421565,0,0,0,0,0,0,0,0,0,0,0,0,0,0,0.05847548,-0.1089545,-0.06522284,0.002441406,-0.946167,-0.385376,0,0,0,0,0,0
7.440075,-0.09026043,1,-0.1017405,-0.5508018,0,0,0,0,0,0,0,0,0,0,0,0,0,0,0.03323592,-0.1137026,-0.07122034,-0.0007324219,-0.9500732,-0.3829346,0,0,0,0,0,0
7.450076,-0.1690417,1,-0.09391275,-0.4047964,0,0,0,0,0,0,0,0,0,0,0,0,0,0,-0.003248777,-0.05997742,-0.04373353,-0.01306152,-0.9477539,-0.3913574,0,0,0,0,0,0
7.460076,-0.2882255,1,-0.02489639,-0.05572049,0,0,0,0,0,0,0,0,0,0,0,0,0,0,-0.02781142,-0.1246426,-0.1034426,-0.009277344,-0.9310303,-0.4018555,0,0,0,0,0,0
7.470076,-0.3766855,1,0,0,0,0,0,0,0,0,0,0,0,0,0,0,0,0,0.01395603,-0.1406,-0.1181086,-0.01843262,-0.8481445,-0.4897461,0,0,0,0,0,0
7.480076,-0.4908059,1,0,0,0,0,0,0,0,0,0,0,0,0,0,0,0,0,0.07172299,-0.07996988,-0.07572149,0.03796387,-0.8852539,-0.401001,0,0,0,0,0,0
7.490077,-0.6035143,0.9712184,0,0,0,0,0,0,0,0,0,0,0,0,0,0,0,0,0.06172676,-0.07222281,-0.06397591,0.02722168,-0.9337158,-0.3729248,0,0,0,0,0,0
7.500077,-0.6996371,0.9075292,0,0,0,0,0,0,0,0,0,0,0,0,0,0,0,0,0.09611297,-0.1223518,-0.1156238,0.02978516,-0.927124,-0.3914795,0,0,0,0,0,0
7.510077,-0.7153703,0.8912154,0,0,0,0,0,0,0,0,0,0,0,0,0,0,0,0,0.050227,-0.06022242,-0.05722379,0.02807617,-0.9304199,-0.3814697,0,0,0,0,0,0
7.520077,-0.8197833,0.8037875,0,0,0,0,0,0,0,0,0,0,0,0,0,0,0,0,0.1150279,-0.0945176,-0.06443448,0.03222656,-0.9450684,-0.3775635,0,0,0,0,0,0
7.530077,-0.8755721,0.7396386,0,0,0,0,0,0,0,0,0,0,0,0,0,0,0,0,0.06112461,-0.03944267,-0.00830372,0.02966309,-0.9556885,-0.3729248,0,0,0,0,0,0
7.540078,-0.9315377,0.6676687,0.002102181,0.03153272,0,0,0,0,0,0,0,0,0,0,0,0,0,0,0.1542117,-0.07323101,0.02949382,0.02246094,-0.9346924,-0.3825684,0,0,0,0,0,0
7.550078,-0.9545932,0.6190876,0.007091154,0.0780027,0,0,0,0,0,0,0,0,0,0,0,0,0,0,0.09622161,-0.03299027,0.0352396,0.02124023,-0.9110107,-0.3779297,0,0,0,0,0,0
7.560078,-0.9868394,0.5713281,0.01992933,0.161649,0,0,0,0,0,0,0,0,0,0,0,0,0,0,0.2329876,-0.06222616,0.09048455,-0.001586914,-0.8552246,-0.3724365,0,0,0,0,0,0
7.570078,-1,0.5309846,0.04110431,0.2548467,0,0,0,0,0,0,0,0,0,0,0,0,0,0,0.3100596,-0.06674077,0.1055895,-0.009887695,-0.8314209,-0.3723145,0,0,0,0,0,0
7.580079,-1,0.4985325,0.06670978,0.3843754,0,0,0,0,0,0,0,0,0,0,0,0,0,0,0.2009216,-0.03852343,0.06528223,-0.0135498,-0.8687744,-0.3676758,0,0,0,0,0,0
7.590079,-1,0.4662001,0.08613928,0.5133901,0,0,0,0,0,0,0,0,0,0,0,0,0,0,0.2311202,-0.04267189,0.079116,-0.007568359,-0.9106445,-0.3480225,0,0,0,0,0,0
7.600079,-1,0.4253754,0.1132314,0.6611255,0,0,0,0,0,0,0,0,0,0,0,0,0,0,0.5030399,-0.09895873,0.196668,-0.0009765625,-0.9471436,-0.3162842,0,0,0,0,0,0
7.610079,-1,0.4009901,0.1233794,0.7440153,0,0,0,0,0,0,0,0,0,0,0,0,0,0,0.4720528,-0.09795909,0.2019157,-0.0008544922,-0.9382324,-0.2974854,0,0,0,0,0,0
7.62008,-1,0.3928797,0.125231,0.8083089,0,0,0,0,0,0,0,0,0,0,0,0,0,0,0.2274144,-0.0467324,0.1002123,0.00390625,-0.9434814,-0.2805176,0,0,0,0,0,0
7.63008,-1,0.3847782,0.126416,0.8542656,0,0,0,0,0,0,0,0,0,0,0,0,0,0,0.4428116,-0.08579044,0.1953592,-0.00402832,-0.9758301,-0.2532959,0,0,0,0,0,0
7.64008,-1,0.3847782,0.119144,0.8724418,0,0,0,0,0,0,0,0,0,0,0,0,0,0,0.4350064,-0.08460221,0.187236,-0.02075195,-0.9926758,-0.237915,0,0,0,0,0,0
7.65008,-1,0.3847782,0.1037245,0.8720541,0,0,0,0,0,0,0,0,0,0,0,0,0,0,0.1995199,-0.04082663,0.0869584,-0.03222656,-1.008545,-0.2303467,0,0,0,0,0,0
7.66008,-1,0.3847782,0.0729394,0.8714339,0,0,0,0,0,0,0,0,0,0,0,0,0,0,0.2016576,-0.04697848,0.08870938,-0.04785156,-1.022095,-0.213623,0,0,0,0,0,0
7.670081,-1,0.3686016,0.01150882,0.8708343,0,0,0,0,0,0,0,0,0,0,0,0,0,0,0.3508819,-0.09971653,0.1554477,-0.05749512,-1.04895,-0.2070313,0,0,0,0,0,0
7.680081,-1,0.3444016,-0.0422083,0.8710257,0,0,0,0,0,0,0,0,0,0,0,0,0,0,0.3108572,-0.1009538,0.1456833,-0.04541016,-1.045776,-0.2062988,0,0,0,0,0,0
7.690081,-1,0.3283107,-0.0729394,0.8714339,0,0,0,0,0,0,0,0,0,0,0,0,0,0,0.2834178,-0.09611296,0.1408247,-0.03881836,-1.033569,-0.2030029,0,0,0,0,0,0
7.700081,-1,0.2962267,-0.1423143,0.8731174,0,0,0,0,0,0,0,0,0,0,0,0,0,0,0.1287076,-0.04428651,0.06366186,-0.03662109,-1.020996,-0.1881104,0,0,0,0,0,0
7.710082,-1,0.2722459,-0.2043981,0.8754408,0,0,0,0,0,0,0,0,0,0,0,0,0,0,0.2566431,-0.09121199,0.131945,-0.04650879,-1.030518,-0.1903076,0,0,0,0,0,0
7.720082,-1,0.2562958,-0.2591564,0.8780372,0,0,0,0,0,0,0,0,0,0,0,0,0,0,0.2269051,-0.08721358,0.1314452,-0.04956055,-1.041138,-0.2004395,0,0,0,0,0,0
7.730082,-1,0.2324234,-0.3461964,0.8829952,0,0,0,0,0,0,0,0,0,0,0,0,0,0,0.1689427,-0.08287558,0.1391064,-0.05480957,-1.020264,-0.2001953,0,0,0,0,0,0
7.740082,-1,0.2165419,-0.4264964,0.8882082,0,0,0,0,0,0,0,0,0,0,0,0,0,0,0.1397677,-0.08525214,0.1396137,-0.0637207,-1.000488,-0.1942139,0,0,0,0,0,0
7.750082,-1,0.1927661,-0.4997664,0.8932832,0,0,0,0,0,0,0,0,0,0,0,0,0,0,0.05536302,-0.04498245,0.06574358,-0.07104492,-1.007324,-0.1948242,0,0,0,0,0,0
7.760083,-1,0.1611441,-0.590592,0.899761,0,0,0,0,0,0,0,0,0,0,0,0,0,0,0.1064355,-0.1021489,0.1347503,-0.07006836,-0.9991455,-0.1938477,0,0,0,0,0,0
7.770083,-1,0.1296006,-0.6407002,0.9033475,0,0,0,0,0,0,0,0,0,0,0,0,0,0,0.1089546,-0.1077051,0.1284463,-0.06115723,-1.004395,-0.1966553,0,0,0,0,0,0
7.780083,-1,0.09812176,-0.6972183,0.8725189,0,0,0,0,0,0,0,0,0,0,0,0,0,0,0.04898156,-0.05023109,0.05872789,-0.0637207,-1.025513,-0.1806641,0,0,0,0,0,0
7.790083,-1,0.06669273,-0.7523547,0.8160461,0,0,0,0,0,0,0,0,0,0,0,0,0,0,0.02723974,-0.04323372,0.05198043,-0.06518555,-1.034058,-0.1707764,0,0,0,0,0,0
7.800084,-1,-0.003921574,-0.8420238,0.7542298,0,0,0,0,0,0,0,0,0,0,0,0,0,0,-0.00313299,-0.07047011,0.07823613,-0.09143066,-1.033813,-0.1625977,0,0,0,0,0,0
7.810084,-1,-0.06669273,-0.8800389,0.680935,0,0,0,0,0,0,0,0,0,0,0,0,0,0,-0.03210014,-0.06037576,0.05968385,-0.09887695,-1.015259,-0.1575928,0,0,0,0,0,0
7.820084,-1,-0.1374799,-0.9280418,0.6173669,0,0,0,0,0,0,0,0,0,0,0,0,0,0,-0.0129169,-0.02560314,0.02629511,-0.09716797,-1.008179,-0.1558838,0,0,0,0,0,0
7.830084,-1,-0.2086106,-0.9512189,0.5691394,0,0,0,0,0,0,0,0,0,0,0,0,0,0,-0.004248055,-0.02798718,0.03173546,-0.1031494,-0.9952393,-0.1611328,0,0,0,0,0,0
7.840085,-1,-0.3042357,-0.9747131,0.5211732,0,0,0,0,0,0,0,0,0,0,0,0,0,0,0.002748029,-0.06245908,0.05996012,-0.1038818,-1.008789,-0.1630859,0,0,0,0,0,0
7.850085,-1,-0.3766855,-0.9910758,0.497528,0,0,0,0,0,0,0,0,0,0,0,0,0,0,-0.01124546,-0.06972096,0.05472716,-0.1107178,-1.010498,-0.1699219,0,0,0,0,0,0
7.860085,-0.9961495,-0.4325908,-1,0.481615,0,0,0,0,0,0,0,0,0,0,0,0,0,0,-0.01474325,-0.03873226,0.0224897,-0.1176758,-0.9979248,-0.1712646,0,0,0,0,0,0
7.870085,-0.9490002,-0.5360461,-0.9985589,0.4734204,0,0,0,0,0,0,0,0,0,0,0,0,0,0,-0.03510047,-0.08715515,0.03054474,-0.1193848,-0.9858398,-0.1755371,0,0,0,0,0,0
7.880085,-0.9021508,-0.6239545,-0.9985589,0.4734204,0,0,0,0,0,0,0,0,0,0,0,0,0,0,-0.02126009,-0.1001113,0.03142898,-0.1254883,-0.9753418,-0.1773682,0,0,0,0,0,0
7.890086,-0.8463467,-0.6953552,-0.9985589,0.4734204,0,0,0,0,0,0,0,0,0,0,0,0,0,0,0.009496241,-0.1206997,0.04498133,-0.1235352,-0.9794922,-0.1826172,0,0,0,0,0,0
7.900086,-0.8147796,-0.7352889,-0.9985589,0.4734204,0,0,0,0,0,0,0,0,0,0,0,0,0,0,0.03623468,-0.1251978,0.06572241,-0.1203613,-0.9825439,-0.1807861,0,0,0,0,0,0
7.910086,-0.790792,-0.7590014,-1,0.5062566,0,0,0,0,0,0,0,0,0,0,0,0,0,0,0.02499059,-0.06222657,0.04273391,-0.125,-0.9882813,-0.1657715,0,0,0,0,0,0
7.920086,-0.7669296,-0.7828245,-0.9451655,0.6101702,0,0,0,0,0,0,0,0,0,0,0,0,0,0,0.05109372,-0.121333,0.09267218,-0.1230469,-0.987793,-0.1760254,0,0,0,0,0,0
7.930087,-0.7510855,-0.7987735,-0.865021,0.7135427,0,0,0,0,0,0,0,0,0,0,0,0,0,0,0.06708691,-0.1249853,0.108454,-0.1173096,-0.9991455,-0.1806641,0,0,0,0,0,0
7.940087,-0.7274072,-0.8228048,-0.7926962,0.7847294,0,0,0,0,0,0,0,0,0,0,0,0,0,0,0.07210393,-0.1326935,0.1197375,-0.1314697,-1.025269,-0.1848145,0,0,0,0,0,0
7.950087,-0.6959809,-0.8550623,-0.72929,0.8488457,0,0,0,0,0,0,0,0,0,0,0,0,0,0,0.0294889,-0.07572149,0.06722469,-0.1384277,-1.040527,-0.178833,0,0,0,0,0,0
7.960087,-0.6718884,-0.870672,-0.6725031,0.8794271,0,0,0,0,0,0,0,0,0,0,0,0,0,0,0.01699499,-0.07572766,0.07397817,-0.1339111,-1.053101,-0.1602783,0,0,0,0,0,0
7.970088,-0.6562817,-0.8869745,-0.62455,0.9109678,0,0,0,0,0,0,0,0,0,0,0,0,0,0,-0.009284096,-0.1399021,0.1639493,-0.135376,-1.096924,-0.138916,0,0,0,0,0,0
7.980088,-0.62455,-0.9109678,-0.6161929,0.9103752,0,0,0,0,0,0,0,0,0,0,0,0,0,0,-0.0721646,-0.131219,0.1827569,-0.1298828,-1.119019,-0.1391602,0,0,0,0,0,0
7.990088,-0.5763075,-0.9340156,-0.6167826,0.919205,0,0,0,0,0,0,0,0,0,0,0,0,0,0,-0.1911031,-0.1122936,0.2249141,-0.1419678,-1.155396,-0.112793,0,0,0,0,0,0
8.000088,-0.5448537,-0.9584652,-0.6167826,0.919205,0,0,0,0,0,0,0,0,0,0,0,0,0,0,-0.2656395,-0.1012077,0.2598917,-0.1401367,-1.145752,-0.1188965,0,0,0,0,0,0
8.010088,-0.520642,-0.965771,-0.6251402,0.9197923,0,0,0,0,0,0,0,0,0,0,0,0,0,0,-0.1556914,-0.03723598,0.146195,-0.1341553,-1.126465,-0.1179199,0,0,0,0,0,0
8.020088,-0.4888099,-0.9815939,-0.6972183,0.8725189,0,0,0,0,0,0,0,0,0,0,0,0,0,0,-0.3199678,-0.04338922,0.3005899,-0.1325684,-1.0625,-0.1379395,0,0,0,0,0,0
8.030088,-0.4647444,-0.9890714,-0.7529836,0.8246963,0,0,0,0,0,0,0,0,0,0,0,0,0,0,-0.3422584,-0.02079873,0.299661,-0.1428223,-1.019775,-0.1575928,0,0,0,0,0,0
8.040089,-0.4330592,-1,-0.808669,0.7688331,0,0,0,0,0,0,0,0,0,0,0,0,0,0,-0.1787764,0.002537472,0.1416371,-0.1625977,-1.003296,-0.1668701,0,0,0,0,0,0
