Timestamp, Left Stick X, Left Stick Y, Right Stick X, Right Stick Y, D-Pad Up, D-Pad Right,D-Pad Down, D-Pad Left, Button North, Button East, Button South, Button West, L1, R1, L2, R2, L3, R3,Gyroscope X, Gyroscope Y, Gyroscope Z, Accelerometer X, Accelerometer Y, Accelerometer Z,Touch 1, Touch 2, Touch 1 Pos X, Touch 1 Pos Y, Touch 2 Pos X, Touch 2 Pos Y
0,-0.4094579,0,0.3730516,-0.02821398,0,0,0,0,0,0,0,0,0,0,0,0,0,0,0,0,0,-0.03295898,-1.00061,-0.1999512,0,0,0,0,0,0
0.01,-0.5019299,0.02390142,0.6034793,-0.03213795,0,0,0,0,0,0,0,0,0,0,0,0,0,0,0,0,0,-0.0267334,-1.001465,-0.1984863,0,0,0,0,0,0
0.02,-0.6129646,0.04659964,0.8709028,-0.02685603,0,0,0,0,0,0,0,0,0,0,0,0,0,0,0,0,0,-0.04614258,-0.9937744,-0.1856689,0,0,0,0,0,0
0.03,-0.7612141,0.08624594,1,-0.01960851,0,0,0,0,0,0,0,0,0,0,0,0,0,0,0,0,0,-0.1082764,-1.010864,-0.1577148,0,0,0,0,0,0
0.04,-0.8630394,0.1112362,1,-0.01960851,0,0,0,0,0,0,0,0,0,0,0,0,0,0,0,0,0,-0.04821777,-1.023804,-0.1246338,0,0,0,0,0,0
0.05,-1,0.1690417,1,-0.01960851,0,0,0,0,0,0,0,0,0,0,0,0,0,0,0,0,0,-0.007446289,-1.024414,-0.2369385,0,0,0,0,0,0
0.05999999,-1,0.1927661,1,-0.01960851,0,0,0,0,0,0,0,0,0,0,0,0,0,0,0,0,0,-0.04064941,-1.010986,-0.182251,0,0,0,0,0,0
0.06999999,-1,0.1927661,1,-0.01960851,0,0,0,0,0,0,0,0,0,0,0,0,0,0,0,0,0,-0.07653809,-1.022339,-0.1488037,0,0,0,0,0,0
0.07999999,-1,0.1927661,1,-0.01960851,0,0,0,0,0,0,0,0,0,0,0,0,0,0,0,0,0,-0.07336426,-1.047363,-0.1553955,0,0,0,0,0,0
0.08999999,-1,0.1927661,1,-0.02745281,0,0,0,0,0,0,0,0,0,0,0,1,0,0,-0.07021784,-0.005747368,-0.00224897,-0.04541016,-1.002563,-0.1950684,0,0,0,0,0,0
0.09999999,-1,0.1927661,1,-0.01960851,0,0,0,0,0,0,0,0,0,0,0,1,0,0,0,0,0,-0.03210449,-0.9796143,-0.2196045,0,0,0,0,0,0
0.11,-1,0.2006854,1,-0.01960851,0,0,0,0,0,0,0,0,0,0,0,1,0,0,0,0,0,-0.04125977,-0.9437256,-0.2049561,0,0,0,0,0,0
0.12,-1,0.2086106,1,0,0,0,0,0,0,0,0,0,0,0,0,1,0,0,-0.04872768,-0.006247139,-0.03448421,-0.006347656,-0.9542236,-0.2570801,0,0,0,0,0,0
0.13,-1,0.2165419,1,0.035298,0,0,0,0,0,0,0,0,0,0,0,1,0,0,0,0,0,-0.01416016,-0.9730225,-0.2282715,0,0,0,0,0,0
0.14,-1,0.2244794,1,0.06669273,0,0,0,0,0,0,0,0,0,0,0,1,0,0,0,0,0,-0.01318359,-0.951416,-0.2607422,0,0,0,0,0,0
0.15,-1,0.2403741,1,0.09026043,0,0,0,0,0,0,0,0,0,0,0,1,0,0,0,0,0,-0.01245117,-0.9649658,-0.2532959,0,0,0,0,0,0
0.16,-1,0.2483314,1,0.09812176,0,0,0,0,0,0,0,0,0,0,0,1,0,0,0,0,0,-0.01281738,-0.975708,-0.2397461,0,0,0,0,0,0
0.17,-1,0.2642672,1,0.113854,0,0,0,0,0,0,0,0,0,0,0,1,0,0,0.02149191,-0.0009996236,-0.008246895,-0.02990723,-0.9718018,-0.210083,0,0,0,0,0,0
0.18,-1,0.2722459,1,0.113854,0,0,0,0,0,0,0,0,0,0,0,1,0,0,0,0,0,-0.02929688,-0.9737549,-0.2214355,0,0,0,0,0,0
0.19,-1,0.2802319,1,0.113854,0,0,0,0,0,0,0,0,0,0,0,1,0,0,0,0,0,-0.005493164,-1.021851,-0.2200928,0,0,0,0,0,0
0.2,-1,0.2802319,1,0.113854,0,0,0,0,0,0,0,0,0,0,0,1,0,0,0.04423334,0.01649379,0.02424087,-0.00402832,-1.030518,-0.2043457,0,0,0,0,0,0
0.21,-1,0.2802319,1,0.113854,0,0,0,0,0,0,0,0,0,0,0,1,0,0,0,0,0,-0.009765625,-1.039307,-0.2303467,0,0,0,0,0,0
0.22,-1,0.2882255,0.944972,0.0583316,0,0,0,0,0,0,0,0,0,0,0,0,0,0,0,0,0,-0.02001953,-1.028198,-0.2127686,0,0,0,0,0,0
0.23,-1,0.2962267,0.8154728,0.01137869,0,0,0,0,0,0,0,0,0,0,0,0,0,0,-0.007746452,0.01324393,0.006996796,-0.046875,-0.993042,-0.1850586,0,0,0,0,0,0
0.24,-1,0.2962267,0.7416401,-0.003726835,0,0,0,0,0,0,0,0,0,0,0,0,0,0,0,0,0,-0.05603027,-0.987915,-0.2224121,0,0,0,0,0,0
0.25,-1,0.2962267,0.667886,-0.01824825,0,0,0,0,0,0,0,0,0,0,0,0,0,0,0,0,0,-0.1065674,-0.9453125,-0.1395264,0,0,0,0,0,0
0.26,-1,0.2962267,0.6401638,-0.01085023,0,0,0,0,0,0,0,0,0,0,0,0,0,0,0,0,0,-0.08581543,-1.074463,-0.1309814,0,0,0,0,0,0
0.27,-1,0.3202776,0.6032574,-0.01070871,0,0,0,0,0,0,0,0,0,0,0,0,0,0,0,0,0,-0.06469727,-1.031494,-0.1994629,0,0,0,0,0,0
0.28,-1,0.3524597,0.5940023,0,0,0,0,0,0,0,0,0,0,0,0,0,0,0,0,0,0,-0.078125,-1.053955,-0.2161865,0,0,0,0,0,0
0.29,-1,0.3605264,0.5943839,0.03915104,0,0,0,0,0,0,0,0,0,0,0,0,0,0,0,0,0,-0.06982422,-1.043457,-0.1838379,0,0,0,0,0,0
0.3,-1,0.3847782,0.5953812,0.0748683,0,0,0,0,0,0,0,0,0,0,0,1,0,0,-0.1084503,-0.0172421,-0.02124027,-0.05395508,-1.029785,-0.1828613,0,0,0,0,0,0
0.31,-1,0.4253754,0.6187671,0.1700705,0,0,0,0,0,0,0,0,0,0,0,1,0,0,0,0,0,-0.009033203,-0.9747314,-0.2509766,0,0,0,0,0,0
0.32,-1,0.4498426,0.63113,0.2152409,0,0,0,0,0,0,0,0,0,0,0,1,0,0,0,0,0,-0.02099609,-0.8439941,-0.2878418,0,0,0,0,0,0
0.33,-1,0.4743927,0.634898,0.2605651,0,0,0,0,0,0,0,0,0,0,0,1,0,0,-0.06197666,-0.03198795,-0.04273391,-0.01184082,-0.9111328,-0.3249512,0,0,0,0,0,0
0.3399999,-1,0.4985325,0.6355662,0.2681869,0,0,0,0,0,0,0,0,0,0,0,1,0,0,0,0,0,-0.01916504,-0.9057617,-0.2993164,0,0,0,0,0,0
0.3499999,-1,0.5227324,0.6362444,0.2758285,0,0,0,0,0,0,0,0,0,0,0,1,0,0,0,0,0,0.0008544922,-0.9213867,-0.2905273,0,0,0,0,0,0
0.3599999,-0.9952292,0.5635635,0.6362444,0.2758285,0,0,0,0,0,0,0,0,0,0,0,1,0,0,0.04773203,-0.003998494,0.0009996236,-0.006591797,-0.9368896,-0.1965332,0,0,0,0,0,0
0.3699999,-0.9790122,0.5874074,0.6355662,0.2681869,0,0,0,0,0,0,0,0,0,0,0,1,0,0,0,0,0,0.03234863,-1.00354,-0.2235107,0,0,0,0,0,0
0.3799999,-0.9391946,0.6514414,0.63113,0.2152409,0,0,0,0,0,0,0,0,0,0,0,1,0,0,0,0,0,0.04260254,-1.034546,-0.2390137,0,0,0,0,0,0
0.3899999,-0.892418,0.7323431,0.6260042,0.1411223,0,0,0,0,0,0,0,0,0,0,0,0,0,0,0.04523297,0.03548664,0.07347234,0.03466797,-1.009033,-0.2481689,0,0,0,0,0,0
0.3999999,-0.851927,0.7719339,0.6137726,0.07537559,0,0,0,0,0,0,0,0,0,0,0,0,0,0,0,0,0,0.01281738,-0.9868164,-0.2479248,0,0,0,0,0,0
0.4099999,-0.7798811,0.8438712,0.6126044,-0.02507737,0,0,0,0,0,0,0,0,0,0,0,0,0,0,0,0,0,-0.02587891,-0.9731445,-0.2349854,0,0,0,0,0,0
0.4199999,-0.7481521,0.8761782,0.6140317,-0.08258906,0,0,0,0,0,0,0,0,0,0,0,0,0,0,0,0,0,-0.06103516,-0.9099121,-0.173584,0,0,0,0,0,0
0.4299999,-0.691781,0.91571,0.6177847,-0.1553494,0,0,0,0,0,0,0,0,0,0,0,0,0,0,0,0,0,-0.06347656,-0.942749,-0.1988525,0,0,0,0,0,0
0.4399998,-0.6520168,0.9480243,0.6215127,-0.2071709,0,0,0,0,0,0,0,0,0,0,0,0,0,0,0,0,0,-0.1262207,-0.9101563,-0.1777344,0,0,0,0,0,0
0.4499998,-0.6280115,0.9640176,0.6317267,-0.2227476,0,0,0,0,0,0,0,0,0,0,0,0,0,0,0,0,0,-0.09655762,-0.9903564,-0.1303711,0,0,0,0,0,0
0.4599998,-0.5879496,0.9879154,0.6317267,-0.2227476,0,0,0,0,0,0,0,0,0,0,0,0,0,0,0,0,0,-0.07165527,-1.062988,-0.1728516,0,0,0,0,0,0
0.4699998,-0.5392466,1,0.6587986,-0.2245068,0,0,0,0,0,0,0,0,0,0,0,0,0,0,-0.06272638,-0.003498683,-0.002748965,-0.09130859,-1.001343,-0.260498,0,0,0,0,0,0
0.4799998,-0.5232409,1,0.6742981,-0.1879191,0,0,0,0,0,0,0,0,0,0,0,1,0,0,0,0,0,-0.08410645,-1.027954,-0.171875,0,0,0,0,0,0
0.4899998,-0.4825947,1,0.7070084,-0.1147501,0,0,0,0,0,0,0,0,0,0,0,1,0,0,0,0,0,-0.06665039,-0.9311523,-0.1986084,0,0,0,0,0,0
0.4999998,-0.4416777,1,0.7326851,-0.04091135,0,0,0,0,0,0,0,0,0,0,0,1,0,0,-0.0507309,-0.02224163,-0.0422341,-0.03845215,-0.8651123,-0.4111328,0,0,0,0,0,0
0.5099998,-0.433522,1,0.7416579,-0.01118077,0,0,0,0,0,0,0,0,0,0,0,1,0,0,0,0,0,-0.03918457,-0.9371338,-0.3575439,0,0,0,0,0,0
0.5199998,-0.4172379,1,0.7416378,0,0,0,0,0,0,0,0,0,0,0,0,1,0,0,0,0,0,-0.01281738,-0.9503174,-0.3133545,0,0,0,0,0,0
0.5299998,-0.4172379,1,0.7416378,0,0,0,0,0,0,0,0,0,0,0,0,1,0,0,0.02198993,-0.05247597,-0.01124485,0.006225586,-0.9772949,-0.2722168,0,0,0,0,0,0
0.5399998,-0.4091095,1,0.7416378,0,0,0,0,0,0,0,0,0,0,0,0,1,0,0,0,0,0,0.0006103516,-0.9825439,-0.2219238,0,0,0,0,0,0
0.5499998,-0.3928797,1,0.7417469,-0.0260916,0,0,0,0,0,0,0,0,0,0,0,1,0,0,0,0,0,0.02050781,-1.029175,-0.1921387,0,0,0,0,0,0
0.5599998,-0.3686016,1,0.7340451,-0.1006052,0,0,0,0,0,0,0,0,0,0,0,1,0,0,0.06347093,0.008745994,0.07446589,0.04992676,-1.067627,-0.2537842,0,0,0,0,0,0
0.5699998,-0.3524597,1,0.7277026,-0.1679314,0,0,0,0,0,0,0,0,0,0,0,1,0,0,0,0,0,0.0189209,-1.045654,-0.2213135,0,0,0,0,0,0
0.5799997,-0.3202776,1,0.6983563,-0.2726204,0,0,0,0,0,0,0,0,0,0,0,0,0,0,0,0,0,0.01220703,-1.022217,-0.2481689,0,0,0,0,0,0
0.5899997,-0.2962267,1,0.6781002,-0.3484161,0,0,0,0,0,0,0,0,0,0,0,0,0,0,0,0,0,-0.01049805,-1.007324,-0.2416992,0,0,0,0,0,0
0.5999997,-0.2722459,1,0.6432849,-0.4401423,0,0,0,0,0,0,0,0,0,0,0,0,0,0,0,0,0,-0.04467773,-0.9752197,-0.2327881,0,0,0,0,0,0
0.6099997,-0.2562958,1,0.5905311,-0.5077814,0,0,0,0,0,0,0,0,0,0,0,0,0,0,0,0,0,-0.08752441,-0.8911133,-0.222168,0,0,0,0,0,0
0.6199997,-0.2483314,1,0.5525655,-0.5450476,0,0,0,0,0,0,0,0,0,0,0,0,0,0,0,0,0,-0.114502,-0.9093018,-0.1512451,0,0,0,0,0,0
0.6299997,-0.2403741,1,0.4659214,-0.5777426,0,0,0,0,0,0,0,0,0,0,0,0,0,0,0,0,0,-0.1051025,-0.9854736,-0.1112061,0,0,0,0,0,0
0.6399997,-0.2165419,1,0.3784006,-0.5767855,0,0,0,0,0,0,0,0,0,0,0,0,0,0,-0.04448325,0.02624012,-0.02873918,-0.1181641,-1.03772,-0.21521,0,0,0,0,0,0
0.6499997,-0.2006854,1,0.3304932,-0.5629278,0,0,0,0,0,0,0,0,0,0,0,0,0,0,0,0,0,-0.1461182,-1.021851,-0.2696533,0,0,0,0,0,0
0.6599997,-0.1848525,1,0.2715833,-0.504369,0,0,0,0,0,0,0,0,0,0,0,1,0,0,0,0,0,-0.1646729,-1.051392,-0.1561279,0,0,0,0,0,0
0.6699997,-0.1690417,1,0.2191099,-0.3695436,0,0,0,0,0,0,0,0,0,0,0,1,0,0,-0.1192051,-0.001999247,-0.03173805,-0.1021729,-0.9625244,-0.1982422,0,0,0,0,0,0
0.6799996,-0.1532514,1,0.1816629,-0.2650491,0,0,0,0,0,0,0,0,0,0,0,1,0,0,0,0,0,-0.0802002,-0.8353271,-0.3426514,0,0,0,0,0,0
0.6899996,-0.1453634,1,0.1086776,-0.121985,0,0,0,0,0,0,0,0,0,0,0,1,0,0,0,0,0,-0.05957031,-0.9716797,-0.4111328,0,0,0,0,0,0
0.6999996,-0.1453634,1,0.04521557,-0.03825933,0,0,0,0,0,0,0,0,0,0,0,1,0,0,-0.03944267,-0.08303721,-0.03736674,-0.03955078,-0.9627686,-0.3623047,0,0,0,0,0,0
0.7099996,-0.1453634,1,0.001298725,-0.0009635704,0,0,0,0,0,0,0,0,0,0,0,1,0,0,0,0,0,-0.02087402,-0.9647217,-0.3236084,0,0,0,0,0,0
0.7199996,-0.1453634,1,0,0,0,0,0,0,0,0,0,0,0,0,0,1,0,0,0,0,0,-0.003540039,-0.9626465,-0.279541,0,0,0,0,0,0
0.7299996,-0.1453634,1,0,0,0,0,0,0,0,0,0,0,0,0,0,1,0,0,0.04059596,-0.04267189,0.02214325,-0.0002441406,-0.9837646,-0.1784668,0,0,0,0,0,0
0.7399996,-0.1453634,1,0,0,0,0,0,0,0,0,0,0,0,0,0,1,0,0,0,0,0,0.0390625,-1.03125,-0.2158203,0,0,0,0,0,0
0.7499996,-0.1453634,1,0,0,0,0,0,0,0,0,0,0,0,0,0,1,0,0,0,0,0,0.04931641,-1.071655,-0.2615967,0,0,0,0,0,0
0.7599996,-0.1453634,1,0,0,0,0,0,0,0,0,0,0,0,0,0,0,0,0,0.04922745,0.03223523,0.08696017,0.02990723,-1.015747,-0.2593994,0,0,0,0,0,0
0.7699996,-0.1453634,1,0,0,0,0,0,0,0,0,0,0,0,0,0,0,0,0,0,0,0,0.006103516,-0.9946289,-0.2618408,0,0,0,0,0,0
0.7799996,-0.1453634,1,0.01085449,-0.06150878,0,0,0,0,0,0,0,0,0,0,0,0,0,0,0.008745994,0.04123111,0.05247597,-0.0390625,-0.9019775,-0.2319336,0,0,0,0,0,0
0.7899995,-0.1374799,1,0.006970565,-0.1789112,0,0,0,0,0,0,0,0,0,0,0,0,0,0,0,0,0,-0.05566406,-0.9390869,-0.2081299,0,0,0,0,0,0
0.7999995,-0.1296006,1,-0.01398369,-0.2712836,0,0,0,0,0,0,0,0,0,0,0,0,0,0,0,0,0,-0.08752441,-0.9205322,-0.2409668,0,0,0,0,0,0
0.8099995,-0.1296006,1,-0.0267314,-0.3178067,0,0,0,0,0,0,0,0,0,0,0,0,0,0,0,0,0,-0.1234131,-0.9283447,-0.1820068,0,0,0,0,0,0
0.8199995,-0.1217254,1,-0.0471346,-0.3739345,0,0,0,0,0,0,0,0,0,0,0,0,0,0,0,0,0,-0.03405762,-1.124512,-0.1234131,0,0,0,0,0,0
0.8299995,-0.09812176,1,-0.07417853,-0.4031442,0,0,0,0,0,0,0,0,0,0,0,0,0,0,-0.03473692,0.01724351,-0.007247271,-0.142334,-0.9549561,-0.3017578,0,0,0,0,0,0
0.8399995,-0.09026043,1,-0.08787026,-0.4133157,0,0,0,0,0,0,0,0,0,0,0,0,0,0,0,0,0,-0.1213379,-0.9825439,-0.3078613,0,0,0,0,0,0
0.8499995,-0.08240198,1,-0.121343,-0.4165018,0,0,0,0,0,0,0,0,0,0,0,1,0,0,0,0,0,-0.08483887,-1.023438,-0.1628418,0,0,0,0,0,0
0.8599995,-0.08240198,1,-0.148674,-0.4195911,0,0,0,0,0,0,0,0,0,0,0,1,0,0,-0.06671944,-0.01449336,-0.03323478,-0.04284668,-0.8601074,-0.2036133,0,0,0,0,0,0
0.8699995,-0.08240198,1,-0.176557,-0.4230705,0,0,0,0,0,0,0,0,0,0,0,1,0,0,0,0,0,-0.06164551,-0.9110107,-0.34375,0,0,0,0,0,0
0.8799995,-0.07454614,1,-0.2050252,-0.4268557,0,0,0,0,0,0,0,0,0,0,0,1,0,0,0,0,0,-0.05004883,-1.003052,-0.3015137,0,0,0,0,0,0
0.8899994,-0.07454614,1,-0.2389592,-0.4744553,0,0,0,0,0,0,0,0,0,0,0,1,0,0,-0.0007496566,-0.041481,0.006996796,-0.03808594,-0.9927979,-0.262085,0,0,0,0,0,0
0.8999994,-0.07454614,1,-0.2490887,-0.5016857,0,0,0,0,0,0,0,0,0,0,0,1,0,0,0,0,0,-0.02746582,-0.9819336,-0.279541,0,0,0,0,0,0
0.9099994,-0.07454614,1,-0.2691571,-0.5562579,0,0,0,0,0,0,0,0,0,0,0,1,0,0,0,0,0,-0.02258301,-0.9829102,-0.2727051,0,0,0,0,0,0
0.9199994,-0.07454614,1,-0.2890127,-0.6109509,0,0,0,0,0,0,0,0,0,0,0,1,0,0,0.03098581,-0.02448878,0.02873684,-0.02258301,-0.9123535,-0.3193359,0,0,0,0,0,0
0.9299994,-0.07454614,1,-0.2995769,-0.6472341,0,0,0,0,0,0,0,0,0,0,0,1,0,0,0,0,0,-0.05419922,-0.9093018,-0.2032471,0,0,0,0,0,0
0.9399994,-0.07454614,1,-0.3282334,-0.7206043,0,0,0,0,0,0,0,0,0,0,0,1,0,0,0,0,0,0.002319336,-1.044067,-0.2109375,0,0,0,0,0,0
0.9499994,-0.07454614,1,-0.3590055,-0.8299589,0,0,0,0,0,0,0,0,0,0,0,1,0,0,0.07035717,0.03183374,0.07381735,0.01086426,-1.09668,-0.2340088,0,0,0,0,0,0
0.9599994,-0.07454614,1,-0.3796965,-0.9120546,0,0,0,0,0,0,0,0,0,0,0,0,0,0,0,0,0,0.0008544922,-1.06958,-0.2573242,0,0,0,0,0,0
0.9699994,-0.06669273,1,-0.4086611,-1,0,0,0,0,0,0,0,0,0,0,0,0,0,0,0,0,0,-0.03063965,-1.092041,-0.2576904,0,0,0,0,0,0
0.9799994,-0.05099206,1,-0.4086611,-1,0,0,0,0,0,0,0,0,0,0,0,0,0,0,-0.03448702,0.05797817,0.0297388,-0.1191406,-0.90625,-0.1889648,0,0,0,0,0,0
0.9899994,-0.05099206,1,-0.4086611,-1,0,0,0,0,0,0,0,0,0,0,0,0,0,0,0,0,0,-0.09777832,-0.923584,-0.2298584,0,0,0,0,0,0
0.9999993,-0.05099206,1,-0.4086611,-1,0,0,0,0,0,0,0,0,0,0,0,0,0,0,0,0,0,-0.1154785,-0.9229736,-0.2491455,0,0,0,0,0,0
1.009999,-0.05099206,1,-0.4086611,-1,0,0,0,0,0,0,0,0,0,0,0,0,0,0,-0.03073842,0.02748965,-0.003498683,-0.03552246,-1.123413,-0.1629639,0,0,0,0,0,0
1.019999,-0.04314433,1,-0.4086611,-1,0,0,0,0,0,0,0,0,0,0,0,0,0,0,0,0,0,-0.1341553,-0.9528809,-0.3061523,0,0,0,0,0,0
1.029999,-0.035298,1,-0.4493711,-1,0,0,0,0,0,0,0,0,0,0,0,1,0,0,0,0,0,-0.1219482,-1.012939,-0.2611084,0,0,0,0,0,0
1.039999,-0.035298,1,-0.4811167,-0.9900665,0,0,0,0,0,0,0,0,0,0,0,1,0,0,-0.113448,-0.02099039,-0.0172421,-0.0826416,-1.024292,-0.184082,0,0,0,0,0,0
1.049999,-0.035298,1,-0.5047147,-0.9736622,0,0,0,0,0,0,0,0,0,0,0,1,0,0,0,0,0,-0.04577637,-0.8520508,-0.3101807,0,0,0,0,0,0
1.059999,-0.02745281,1,-0.5288838,-0.9663064,0,0,0,0,0,0,0,0,0,0,0,1,0,0,0,0,0,-0.07348633,-0.9625244,-0.3334961,0,0,0,0,0,0
1.069999,-0.02745281,1,-0.5371357,-0.9668443,0,0,0,0,0,0,0,0,0,0,0,1,0,0,0,0,0,-0.06762695,-0.9587402,-0.3344727,0,0,0,0,0,0
1.079999,-0.02745281,1,-0.5448537,-0.9584652,0,0,0,0,0,0,0,0,0,0,0,1,0,0,0,0,0,-0.07421875,-0.9244385,-0.3099365,0,0,0,0,0,0
1.089999,-0.035298,1,-0.5531238,-0.9590133,0,0,0,0,0,0,0,0,0,0,0,1,0,0,0,0,0,-0.04675293,-0.9091797,-0.3101807,0,0,0,0,0,0
1.099999,-0.035298,1,-0.5531238,-0.9590133,0,0,0,0,0,0,0,0,0,0,0,1,0,0,0,0,0,-0.05773926,-0.9046631,-0.2208252,0,0,0,0,0,0
1.109999,-0.035298,1,-0.552572,-0.9501057,0,0,0,0,0,0,0,0,0,0,0,1,0,0,0,0,0,-0.003540039,-1.026245,-0.182251,0,0,0,0,0,0
1.119999,-0.035298,1,-0.5531238,-0.9590133,0,0,0,0,0,0,0,0,0,0,0,1,0,0,0,0,0,0.03796387,-1.113281,-0.2348633,0,0,0,0,0,0
1.129999,-0.035298,1,-0.5365938,-0.9579193,0,0,0,0,0,0,0,0,0,0,0,1,0,0,0,0,0,0.01586914,-1.119019,-0.2193604,0,0,0,0,0,0
1.139999,-0.035298,1,-0.4888099,-0.9815939,0,0,0,0,0,0,0,0,0,0,0,0,0,0,0,0,0,-0.01623535,-1.056152,-0.2348633,0,0,0,0,0,0
1.149999,-0.01960851,1,-0.448894,-0.9971008,0,0,0,0,0,0,0,0,0,0,0,0,0,0,0,0,0,-0.05480957,-0.9732666,-0.2491455,0,0,0,0,0,0
1.159999,-0.01176485,1,-0.4167845,-1,0,0,0,0,0,0,0,0,0,0,0,0,0,0,-0.03898532,0.06222657,0.03523673,-0.1099854,-0.8691406,-0.2000732,0,0,0,0,0,0
1.169999,0,1,-0.4091095,-1,0,0,0,0,0,0,0,0,0,0,0,0,0,0,0,0,0,-0.07824707,-0.96875,-0.1702881,0,0,0,0,0,0
1.179999,0.003921574,1,-0.4009901,-1,0,0,0,0,0,0,0,0,0,0,0,0,0,0,0,0,0,-0.07434082,-0.9838867,-0.2531738,0,0,0,0,0,0
1.189999,0.01176485,1,-0.3928797,-1,0,0,0,0,0,0,0,0,0,0,0,0,0,0,-0.05622883,0.01774332,-0.009496424,-0.1341553,-0.9892578,-0.2807617,0,0,0,0,0,0
1.199999,0.01960851,1,-0.3928797,-1,0,0,0,0,0,0,0,0,0,0,0,0,0,0,0,0,0,-0.12854,-1.006836,-0.2564697,0,0,0,0,0,0
1.209999,0.01960851,1,-0.3928797,-1,0,0,0,0,0,0,0,0,0,0,0,1,0,0,0,0,0,-0.1142578,-1.117798,-0.1385498,0,0,0,0,0,0
1.219999,0.02745281,1,-0.3928797,-1,0,0,0,0,0,0,0,0,0,0,0,1,0,0,0,0,0,-0.05908203,-0.7976074,-0.3138428,0,0,0,0,0,0
1.229999,0.035298,1,-0.4091095,-1,0,0,0,0,0,0,0,0,0,0,0,1,0,0,0,0,0,-0.123291,-0.9332275,-0.3592529,0,0,0,0,0,0
1.239999,0.04314433,1,-0.4253754,-1,0,0,0,0,0,0,0,0,0,0,0,1,0,0,-0.05236419,-0.05028807,-0.03183374,-0.08630371,-0.9111328,-0.3964844,0,0,0,0,0,0
1.249999,0.04314433,1,-0.4412105,-1,0,0,0,0,0,0,0,0,0,0,0,1,0,0,0,0,0,-0.107666,-0.8830566,-0.3479004,0,0,0,0,0,0
1.259999,0.04314433,1,-0.4575411,-1,0,0,0,0,0,0,0,0,0,0,0,1,0,0,0,0,0,-0.05871582,-0.9017334,-0.3349609,0,0,0,0,0,0
1.269999,0.04314433,1,-0.4652353,-0.9980689,0,0,0,0,0,0,0,0,0,0,0,1,0,0,-0.0002306589,-0.06435382,-0.01407019,-0.05065918,-0.8972168,-0.3112793,0,0,0,0,0,0
1.279999,0.04314433,1,-0.4888099,-0.9815939,0,0,0,0,0,0,0,0,0,0,0,1,0,0,0,0,0,-0.01171875,-0.8963623,-0.3234863,0,0,0,0,0,0
1.289999,0.035298,1,-0.4888099,-0.9815939,0,0,0,0,0,0,0,0,0,0,0,1,0,0,0,0,0,-0.008666992,-0.9814453,-0.1867676,0,0,0,0,0,0
1.299999,0.035298,1,-0.4888099,-0.9815939,0,0,0,0,0,0,0,0,0,0,0,1,0,0,0.08845949,0.02973638,0.07071761,0.04772949,-1.074341,-0.2255859,0,0,0,0,0,0
1.309999,0.035298,1,-0.4888099,-0.9815939,0,0,0,0,0,0,0,0,0,0,0,1,0,0,0,0,0,0.05712891,-1.059204,-0.2440186,0,0,0,0,0,0
1.319999,0.035298,1,-0.448894,-0.9971008,0,0,0,0,0,0,0,0,0,0,0,0,0,0,0,0,0,0.04248047,-1.065796,-0.2720947,0,0,0,0,0,0
1.329999,0.035298,1,-0.4091095,-1,0,0,0,0,0,0,0,0,0,0,0,0,0,0,0,0,0,-0.02734375,-0.9934082,-0.2611084,0,0,0,0,0,0
1.339999,0.035298,1,-0.3605264,-1,0,0,0,0,0,0,0,0,0,0,0,0,0,0,0,0,0,-0.0949707,-0.9222412,-0.256958,0,0,0,0,0,0
1.349999,0.035298,1,-0.336352,-1,0,0,0,0,0,0,0,0,0,0,0,0,0,0,-0.01314756,0.05005298,-0.02698709,-0.1018066,-0.8843994,-0.2386475,0,0,0,0,0,0
1.359999,0.035298,1,-0.3202776,-1,0,0,0,0,0,0,0,0,0,0,0,0,0,0,0,0,0,-0.08666992,-0.9246826,-0.2927246,0,0,0,0,0,0
1.369999,0.01176485,1,-0.3122526,-1,0,0,0,0,0,0,0,0,0,0,0,0,0,0,0.0129169,0.01799139,-0.05535813,-0.15625,-0.9217529,-0.2844238,0,0,0,0,0,0
1.379999,0,1,-0.3122526,-1,0,0,0,0,0,0,0,0,0,0,0,0,0,0,0,0,0,-0.08068848,-1.163452,-0.2019043,0,0,0,0,0,0
1.389999,-0.01960851,1,-0.3122526,-1,0,0,0,0,0,0,0,0,0,0,0,0,0,0,0,0,0,-0.1621094,-0.9466553,-0.335083,0,0,0,0,0,0
1.399999,-0.04314433,1,-0.3283107,-1,0,0,0,0,0,0,0,0,0,0,0,0,0,0,0,0,0,-0.130127,-0.9658203,-0.3339844,0,0,0,0,0,0
1.409999,-0.07454614,1,-0.3444016,-1,0,0,0,0,0,0,0,0,0,0,0,1,0,0,0,0,0,-0.1090088,-1.088989,-0.2130127,0,0,0,0,0,0
1.419999,-0.113854,1,-0.3686016,-1,0,0,0,0,0,0,0,0,0,0,0,1,0,0,0,0,0,-0.08972168,-0.9024658,-0.296875,0,0,0,0,0,0
1.429999,-0.1690417,1,-0.4009901,-1,0,0,0,0,0,0,0,0,0,0,0,1,0,0,0,0,0,-0.119751,-0.9527588,-0.3341064,0,0,0,0,0,0
1.439999,-0.2244794,1,-0.4253754,-1,0,0,0,0,0,0,0,0,0,0,0,1,0,0,0,0,0,-0.07653809,-0.993042,-0.3240967,0,0,0,0,0,0
1.449999,-0.3122526,1,-0.4570599,-0.9975828,0,0,0,0,0,0,0,0,0,0,0,1,0,0,0,0,0,-0.07324219,-0.9515381,-0.3395996,0,0,0,0,0,0
1.459999,-0.4253754,1,-0.4806126,-0.9810852,0,0,0,0,0,0,0,0,0,0,0,1,0,0,0.02124027,-0.0727167,0.01024531,-0.05236816,-0.9185791,-0.328125,0,0,0,0,0,0
1.469999,-0.4990265,1,-0.4795869,-0.9631374,0,0,0,0,0,0,0,0,0,0,0,1,0,0,0,0,0,-0.05908203,-0.9267578,-0.2557373,0,0,0,0,0,0
1.479999,-0.579634,0.9873765,-0.4758036,-0.9004879,0,0,0,0,0,0,0,0,0,0,0,1,0,0,0,0,0,-0.06176758,-0.9794922,-0.2427979,0,0,0,0,0,0
1.489999,-0.6196507,0.9634567,-0.4729047,-0.8559184,0,0,0,0,0,0,0,0,0,0,0,1,0,0,0,0,0,-0.0002441406,-1.044556,-0.2575684,0,0,0,0,0,0
1.499999,-0.6676687,0.9315377,-0.4604254,-0.7931699,0,0,0,0,0,0,0,0,0,0,0,1,0,0,0,0,0,0.008666992,-1.091431,-0.2327881,0,0,0,0,0,0
1.509999,-0.6911871,0.9069334,-0.3814127,-0.6986272,0,0,0,0,0,0,0,0,0,0,0,0,0,0,0,0,0,-0.005859375,-1.062866,-0.2342529,0,0,0,0,0,0
1.519999,-0.6990393,0.8987648,-0.3128639,-0.6220471,0,0,0,0,0,0,0,0,0,0,0,0,0,0,0,0,0,-0.02636719,-1.020996,-0.2353516,0,0,0,0,0,0
1.529999,-0.7147655,0.8824759,-0.196021,-0.4780162,0,0,0,0,0,0,0,0,0,0,0,0,0,0,0,0,0,-0.07470703,-0.9926758,-0.2209473,0,0,0,0,0,0
1.539999,-0.731741,0.8836871,-0.07632332,-0.268545,0,0,0,0,0,0,0,0,0,0,0,0,0,0,0,0,0,-0.1395264,-0.9239502,-0.2340088,0,0,0,0,0,0
1.549999,-0.7396386,0.8755721,-0.01488798,-0.07173301,0,0,0,0,0,0,0,0,0,0,0,0,0,0,0,0,0,-0.1307373,-0.9484863,-0.201416,0,0,0,0,0,0
1.559999,-0.7475448,0.8674718,0,0,0,0,0,0,0,0,0,0,0,0,0,0,0,0,0,0,0,-0.0748291,-1.025269,-0.2618408,0,0,0,0,0,0
1.569999,-0.7560699,0.8680802,0,0,0,0,0,0,0,0,0,0,0,0,0,0,0,0,-0.04922745,0.01524302,-0.04348009,-0.1522217,-0.9865723,-0.2661133,0,0,0,0,0,0
1.579999,-0.7554604,0.8593862,0,0,0,0,0,0,0,0,0,0,0,0,0,0,0,0,0,0,0,-0.1591797,-0.9815674,-0.2285156,0,0,0,0,0,0
1.589999,-0.7554604,0.8593862,0,0,0,0,0,0,0,0,0,0,0,0,0,1,0,0,0,0,0,-0.1530762,-1.117554,-0.1417236,0,0,0,0,0,0
1.599999,-0.7554604,0.8593862,0,0,0,0,0,0,0,0,0,0,0,0,0,1,0,0,-0.1699222,-0.02498856,-0.04422975,-0.1463623,-1.017578,-0.3436279,0,0,0,0,0,0
1.609999,-0.7554604,0.8593862,0,0,0,0,0,0,0,0,0,0,0,0,0,1,0,0,0,0,0,-0.135376,-1.014038,-0.428833,0,0,0,0,0,0
1.619999,-0.7554604,0.8593862,0,0,0,0,0,0,0,0,0,0,0,0,0,1,0,0,0,0,0,-0.03930664,-0.8029785,-0.3181152,0,0,0,0,0,0
1.629999,-0.763997,0.8599966,0,0,0,0,0,0,0,0,1,0,0,0,0,1,0,0,0,0,0,-0.03942871,-0.7962646,-0.3886719,0,0,0,0,0,0
1.639999,-0.7615291,0.8253221,0,0,0,0,0,0,0,0,1,0,0,0,0,1,0,0,0,0,0,-0.02062988,-0.8336182,-0.4576416,0,0,0,0,0,0
1.649999,-0.7445205,0.7130064,0,0,0,0,0,0,0,0,1,0,0,0,0,1,0,0,0,0,0,0.02539063,-0.942749,-0.3074951,0,0,0,0,0,0
1.659999,-0.6745271,0.5897294,0,0,0,0,0,0,0,0,1,0,0,0,0,1,0,0,0.1545414,-0.05997131,-0.0258338,-0.008911133,-1.00061,-0.2794189,0,0,0,0,0,0
1.669999,-0.6441974,0.5374665,0,0,0,0,0,0,0,0,1,0,0,0,0,1,0,0,0,0,0,-0.01037598,-1.056519,-0.2911377,0,0,0,0,0,0
1.679999,-0.5965237,0.4839721,0,0,0,0,0,0,0,0,1,0,0,0,0,1,0,0,0,0,0,-0.02050781,-1.063721,-0.2213135,0,0,0,0,0,0
1.689999,-0.5325606,0.437067,0,0,0,0,0,0,0,0,1,0,0,0,0,1,0,0,0.1466828,0.009745537,0.154929,0.09179688,-0.9696045,-0.276001,0,0,0,0,0,0
1.699999,-0.4875157,0.4080687,0,0,0,0,0,0,0,0,1,0,0,0,0,1,0,0,0,0,0,0.06726074,-1.145874,-0.2463379,0,0,0,0,0,0
1.709999,-0.4282054,0.3928165,0,0,0,0,0,0,0,0,1,0,0,0,0,1,0,0,0,0,0,0.03466797,-1.111572,-0.1971436,0,0,0,0,0,0
1.719999,-0.371183,0.3850589,0,0,0,0,0,0,0,0,1,0,0,0,0,0,0,0,0.05572448,0.05972265,0.1839158,-0.03918457,-1.022095,-0.1856689,0,0,0,0,0,0
1.729999,-0.339286,0.3804115,0,0,0,0,0,0,0,0,1,0,0,0,0,0,0,0,0,0,0,-0.08911133,-0.9764404,-0.1832275,0,0,0,0,0,0
1.739999,-0.3026052,0.3910068,0,0,0,0,0,0,0,0,1,0,0,0,0,0,0,0,0,0,0,-0.164917,-0.9255371,-0.1844482,0,0,0,0,0,0
1.749999,-0.2744042,0.403137,0,0,0,0,0,0,0,0,1,0,0,0,0,0,0,0,-0.05072676,0.08321189,-0.007246681,-0.1530762,-0.8963623,-0.2490234,0,0,0,0,0,0
1.759999,-0.2605052,0.4093654,0,0,0,0,0,0,0,0,1,0,0,0,0,0,0,0,0,0,0,-0.1416016,-0.8903809,-0.3208008,0,0,0,0,0,0
1.769999,-0.2541489,0.4168041,0,0,0,0,0,0,0,0,0,0,0,0,0,0,0,0,0,0,0,-0.1679688,-0.8702393,-0.3369141,0,0,0,0,0,0
1.779999,-0.2541489,0.4168041,0,0,0,0,0,0,0,0,0,0,0,0,0,0,0,0,-0.04273043,0.03073592,-0.1032027,-0.1380615,-0.9466553,-0.3365479,0,0,0,0,0,0
1.789999,-0.2541489,0.4168041,0,0,0,0,0,0,0,0,0,0,0,0,0,0,0,0,0,0,0,-0.1618652,-0.8830566,-0.2768555,0,0,0,0,0,0
1.799999,-0.246727,0.415718,0,0,0,0,0,0,0,0,0,0,0,0,0,0,0,0,-0.03573654,0.005997742,-0.08246895,-0.06896973,-1.012695,-0.2506104,0,0,0,0,0,0
1.809999,-0.2320007,0.4135664,0,0,0,0,0,0,0,0,0,0,0,0,0,0,0,0,0,0,0,-0.03942871,-1.103394,-0.2167969,0,0,0,0,0,0
1.819999,-0.2030247,0.4093777,-0.02094085,-0.006639781,0,0,0,0,0,0,0,0,0,0,0,0,0,0,0,0,0,-0.1517334,-0.9517822,-0.3387451,0,0,0,0,0,0
1.829999,-0.2030247,0.4093777,-0.3428338,-0.2082635,0,0,0,0,0,0,0,0,0,0,0,0,0,0,-0.07497177,-0.03248777,-0.02399097,-0.08483887,-0.9521484,-0.2926025,0,0,0,0,0,0
1.839999,-0.1887768,0.4073604,-0.6386239,-0.4799126,0,0,0,0,0,0,0,0,0,0,0,1,0,0,0,0,0,-0.05761719,-0.9377441,-0.277832,0,0,0,0,0,0
1.849999,-0.1451937,0.3839567,-0.8712887,-0.6803213,0,0,0,0,0,0,0,0,0,0,0,1,0,0,0,0,0,0.07421875,-0.9753418,-0.3591309,0,0,0,0,0,0
1.859999,-0.1174939,0.3715348,-0.8794271,-0.6725031,0,0,0,0,0,0,0,0,0,0,0,1,0,0,0,0,0,-0.02587891,-0.9654541,-0.4150391,0,0,0,0,0,0
1.869999,-0.08355638,0.3496989,-0.8788145,-0.6640815,0,0,0,0,0,0,0,0,0,0,0,1,0,0,0,0,0,-0.0007324219,-0.8710938,-0.3616943,0,0,0,0,0,0
1.879999,-0.04969395,0.3010868,-0.8788145,-0.6640815,0,0,0,0,0,0,0,0,0,0,0,1,0,0,0,0,0,-0.03271484,-0.9453125,-0.3455811,0,0,0,0,0,0
1.889999,-0.03086503,0.2721735,-0.870672,-0.6718884,0,0,0,0,0,0,0,0,0,0,0,1,0,0,0,0,0,-0.04467773,-0.9538574,-0.3360596,0,0,0,0,0,0
1.899999,-0.00789576,0.2342409,-0.8407811,-0.7371777,0,0,0,0,0,0,0,0,0,0,0,1,0,0,0,0,0,-0.05493164,-0.9781494,-0.3063965,0,0,0,0,0,0
1.909999,0.007144243,0.1881317,-0.7523547,-0.8160461,0,0,0,0,0,0,0,0,0,0,0,1,0,0,0,0,0,-0.04321289,-0.9260254,-0.300293,0,0,0,0,0,0
1.919999,0.01631838,0.1795021,-0.6718884,-0.870672,0,0,0,0,0,0,0,0,0,0,0,1,0,0,0,0,0,-0.04772949,-0.9643555,-0.3041992,0,0,0,0,0,0
1.929999,0.02903743,0.1630563,-0.5288838,-0.9663064,0,0,0,0,0,0,0,0,0,0,0,1,0,0,0,0,0,-0.04724121,-1.032227,-0.3165283,0,0,0,0,0,0
1.939999,0.03621552,0.1469924,-0.336352,-1,0,0,0,0,0,0,0,0,0,0,0,0,0,0,0.1124485,0.02174004,0.06771899,-0.03039551,-1.060669,-0.2915039,0,0,0,0,0,0
1.949998,0.04550435,0.1495143,-0.2006854,-1,0,0,0,0,0,0,0,0,0,0,0,0,0,0,0,0,0,-0.05126953,-1.070557,-0.251709,0,0,0,0,0,0
1.959998,0.05522576,0.1524231,-0.02745281,-1,0,0,0,0,0,0,0,0,0,0,0,0,0,0,0,0,0,-0.1060791,-0.972168,-0.192627,0,0,0,0,0,0
1.969998,0.06335056,0.1712811,0.08240198,-1,0,0,0,0,0,0,0,0,0,0,0,0,0,0,-0.01524302,0.04597894,-0.01574279,-0.07861328,-0.9812012,-0.2407227,0,0,0,0,0,0
1.979998,0.07159675,0.1901017,0.1217254,-1,0,0,0,0,0,0,0,0,0,0,0,0,0,0,0,0,0,-0.08544922,-0.9509277,-0.3110352,0,0,0,0,0,0
1.989998,0.07298227,0.1988138,0.2006854,-1,0,0,0,0,0,0,0,0,0,0,0,0,0,0,0,0,0,-0.1234131,-0.9221191,-0.310791,0,0,0,0,0,0
1.999998,0.07855936,0.2001997,0.2562958,-1,0,0,0,0,0,0,0,0,0,0,0,0,0,0,0,0,0,-0.1179199,-0.9570313,-0.2901611,0,0,0,0,0,0
2.009999,0.07994545,0.2088897,0.3042357,-1,0,0,0,0,0,0,0,0,0,0,0,0,0,0,0,0,0,-0.1077881,-0.9716797,-0.262085,0,0,0,0,0,0
2.019999,0.07994545,0.2088897,0.336352,-1,0,0,0,0,0,0,0,0,0,0,0,0,0,0,0,0,0,-0.07214355,-1.110229,-0.2390137,0,0,0,0,0,0
2.029999,0.08566734,0.2102744,0.3524597,-1,0,0,0,0,0,0,0,0,0,0,0,0,0,0,0,0,0,-0.1148682,-0.9523926,-0.3415527,0,0,0,0,0,0
2.039999,0.09885195,0.221749,0.3847782,-1,0,0,0,0,0,0,0,0,0,0,0,0,0,0,0,0,0,-0.07263184,-0.9702148,-0.3018799,0,0,0,0,0,0
2.049999,0.1172079,0.2262385,0.4253754,-1,0,0,0,0,0,0,0,0,0,0,0,1,0,0,0,0,0,-0.06298828,-0.9986572,-0.2561035,0,0,0,0,0,0
2.059999,0.1314467,0.2377227,0.4662001,-1,0,0,0,0,0,0,0,0,0,0,0,1,0,0,0,0,0,-0.05615234,-0.9779053,-0.2487793,0,0,0,0,0,0
2.069999,0.1542295,0.2589892,0.5144897,-1,0,0,0,0,0,0,0,0,0,0,0,1,0,0,0,0,0,-0.03588867,-0.9321289,-0.3365479,0,0,0,0,0,0
2.079998,0.1846431,0.2815051,0.5702448,-0.9690174,0,0,0,0,0,0,0,0,0,0,0,1,0,0,-0.04173429,-0.03923523,-0.004748212,-0.04711914,-0.9448242,-0.3240967,0,0,0,0,0,0
2.089998,0.2016479,0.3009207,0.5774385,-0.9517779,0,0,0,0,0,0,0,0,0,0,0,1,0,0,0,0,0,-0.05212402,-0.9301758,-0.2939453,0,0,0,0,0,0
2.099998,0.2347517,0.331225,0.5727757,-0.8808895,0,0,0,0,0,0,0,0,0,0,0,1,0,0,0,0,0,-0.04370117,-0.9416504,-0.2967529,0,0,0,0,0,0
2.109998,0.2546633,0.3671121,0.5491751,-0.7828667,0,0,0,0,0,0,0,0,0,0,0,1,0,0,0,0,0,-0.04638672,-0.9296875,-0.2819824,0,0,0,0,0,0
2.119998,0.2720826,0.3862901,0.4942193,-0.708764,0,0,0,0,0,0,0,0,0,0,0,1,0,0,0,0,0,-0.03479004,-0.9494629,-0.2912598,0,0,0,0,0,0
2.129998,0.285313,0.4296882,0.3784006,-0.5767855,0,0,0,0,0,0,0,0,0,0,0,1,0,0,0,0,0,-0.009765625,-0.97229,-0.2879639,0,0,0,0,0,0
2.139998,0.2924571,0.4897775,0.2163733,-0.4027871,0,0,0,0,0,0,0,0,0,0,0,1,0,0,0.01824165,0.03123569,0.01674233,-0.01965332,-1.002563,-0.2987061,0,0,0,0,0,0
2.149998,0.2961649,0.5245331,0.07610993,-0.1591389,0,0,0,0,0,0,0,0,0,0,0,0,0,0,0,0,0,-0.01806641,-1.004028,-0.2972412,0,0,0,0,0,0
2.159998,0.3012667,0.5771254,0,0,0,0,0,0,0,0,0,0,0,0,0,0,0,0,0,0,0,0.01464844,-0.9858398,-0.3685303,0,0,0,0,0,0
2.169998,0.3058719,0.6301698,0,0,0,0,0,0,0,0,0,0,0,0,0,0,0,0,0,0,0,-0.0579834,-0.9597168,-0.2561035,0,0,0,0,0,0
2.179998,0.3093718,0.6746542,0,0,0,0,0,0,0,0,0,0,0,0,0,0,0,0,0,0,0,-0.05395508,-0.980957,-0.2902832,0,0,0,0,0,0
2.189998,0.3048037,0.7187347,0,0,0,0,0,0,0,0,0,0,0,0,0,0,0,0,0,0,0,-0.1043701,-0.9498291,-0.2493896,0,0,0,0,0,0
2.199998,0.3071728,0.7546591,0,0,0,0,0,0,0,0,0,0,0,0,0,0,0,0,0,0,0,-0.1224365,-0.9727783,-0.2403564,0,0,0,0,0,0
2.209998,0.3083021,0.7726584,0,0,0,0,0,0,0,0,0,0,0,0,0,0,0,0,0,0,0,-0.1480713,-0.9575195,-0.2564697,0,0,0,0,0,0
2.219998,0.3099313,0.7996994,0,0,0,0,0,0,0,0,0,0,0,0,0,0,0,0,0,0,0,-0.1230469,-0.9189453,-0.331543,0,0,0,0,0,0
2.229998,0.3099313,0.7996994,0,0,0,0,0,0,0,0,0,0,0,0,0,0,0,0,-0.06472036,-0.04797802,-0.1022032,-0.04382324,-0.5172119,-0.5482178,0,0,0,0,0,0
2.239998,0.3099313,0.7996994,0,0,0,0,0,0,0,0,1,0,0,0,0,0,0,0,0,0,0,-0.09875488,-1.037354,-0.2636719,0,0,0,0,0,0
2.249998,0.3010183,0.7811235,0,0,0,0,0,0,0,0,1,0,0,0,0,1,0,0,0,0,0,-0.03820801,-1.124146,-0.1911621,0,0,0,0,0,0
2.259998,0.300475,0.7721066,0,0,0,0,0,0,0,0,1,0,0,0,0,1,0,0,0.03923203,-0.05922288,-0.008995879,-0.01391602,-1.122925,-0.2991943,0,0,0,0,0,0
2.269998,0.300475,0.7721066,0,0,0,0,0,0,0,0,1,0,0,0,0,1,0,0,0,0,0,-0.06140137,-1.066528,-0.3074951,0,0,0,0,0,0
2.279998,0.300475,0.7721066,0,0,0,0,0,0,0,0,1,0,0,0,0,1,0,0,0.02491116,-0.05028364,0.03805872,-0.06298828,-1.047241,-0.3054199,0,0,0,0,0,0
2.289998,0.2993622,0.7540897,0,0,0,0,0,0,0,0,1,0,0,0,0,1,0,0,0,0,0,-0.07751465,-0.9984131,-0.2607422,0,0,0,0,0,0
2.299998,0.2910051,0.7445197,0,0,0,0,0,0,0,0,1,0,0,0,0,1,0,0,0,0,0,-0.0715332,-1.011597,-0.2514648,0,0,0,0,0,0
2.309998,0.2898549,0.7265195,0,0,0,0,0,0,0,0,1,0,0,0,0,1,0,0,0,0,0,-0.06176758,-1.200806,-0.2087402,0,0,0,0,0,0
2.319998,0.2898549,0.7265195,0,0,0,0,0,0,0,0,1,0,0,0,0,1,0,0,0,0,0,-0.04199219,-1.10083,-0.177002,0,0,0,0,0,0
2.329998,0.2898549,0.7265195,0,0,0,0,0,0,0,0,1,0,0,0,0,1,0,0,0,0,0,-0.04284668,-1.076416,-0.2191162,0,0,0,0,0,0
2.339998,0.2898549,0.7265195,0,0,0,0,0,0,0,0,1,0,0,0,0,0,0,0,0,0,0,-0.06103516,-0.9827881,-0.303833,0,0,0,0,0,0
2.349998,0.2765522,0.7614657,0,0,0,0,0,0,0,0,1,0,0,0,0,0,0,0,0,0,0,-0.07434082,-0.9521484,-0.3060303,0,0,0,0,0,0
2.359998,0.2470164,0.7866522,0,0,0,0,0,0,0,0,1,0,0,0,0,0,0,0,0,0,0,-0.09692383,-0.921875,-0.307373,0,0,0,0,0,0
2.369998,0.1871973,0.8290167,0,0,0,0,0,0,0,0,0,0,0,0,0,0,0,0,0,0,0,-0.1087646,-0.8666992,-0.3195801,0,0,0,0,0,0
2.379998,0.08784597,0.8440852,0,0,0,0,0,0,0,0,0,0,0,0,0,0,0,0,-0.02798946,0.01799322,-0.06497554,-0.1030273,-0.8890381,-0.3271484,0,0,0,0,0,0
2.389998,0.01144552,0.8431535,0,0,0,0,0,0,0,0,0,0,0,0,0,0,0,0,0,0,0,-0.09631348,-0.8863525,-0.3232422,0,0,0,0,0,0
2.399998,-0.1338726,0.8453096,0,0,0,0,0,0,0,0,0,0,0,0,0,0,0,0,0,0,0,-0.04162598,-0.9406738,-0.3769531,0,0,0,0,0,0
2.409998,-0.297186,0.8529624,0,0,0,0,0,0,0,0,0,0,0,0,0,0,0,0,-0.02024238,-0.02174181,-0.04173429,-0.1013184,-1.074097,-0.2766113,0,0,0,0,0,0
2.419998,-0.416755,0.8607744,0,0,0,0,0,0,0,0,1,0,0,0,0,0,0,0,0,0,0,-0.09350586,-0.8493652,-0.3096924,0,0,0,0,0,0
2.429998,-0.5828713,0.9080103,0,0,0,0,0,0,0,0,1,0,0,0,0,0,0,0,0,0,0,-0.0670166,-0.9217529,-0.2974854,0,0,0,0,0,0
2.439998,-0.6586743,0.9221439,0,0,0,0,0,0,0,0,1,0,0,0,0,0,0,0,0,0,0,-0.04907227,-0.9499512,-0.3085938,0,0,0,0,0,0
2.449998,-0.7068986,0.8906124,0,0,0,0,0,0,0,0,1,0,0,0,0,0,0,0,0,0,0,-0.07324219,-0.951416,-0.3050537,0,0,0,0,0,0
2.459998,-0.7554604,0.8593862,0,0,0,0,0,0,0,0,1,0,0,0,0,0,0,0,0.01399359,-0.02373913,0.01074508,-0.07714844,-0.9725342,-0.2736816,0,0,0,0,0,0
2.469998,-0.779267,0.8352143,0,0,0,0,0,0,0,0,1,0,0,0,0,0,0,0,0,0,0,-0.07006836,-0.9899902,-0.2758789,0,0,0,0,0,0
2.479998,-0.8111632,0.8031714,0,0,0,0,0,0,0,0,1,0,0,0,0,0,0,0,0,0,0,-0.06262207,-0.9912109,-0.2678223,0,0,0,0,0,0
2.489998,-0.8438712,0.7798811,0,0,0,0,0,0,0,0,1,0,0,0,0,0,0,0,0.003459883,-0.001383953,0.008073061,-0.06677246,-1.004028,-0.2381592,0,0,0,0,0,0
2.499998,-0.8513149,0.7633857,0,0,0,0,0,0,0,0,1,0,0,0,0,0,0,0,0,0,0,-0.06665039,-1.008179,-0.2493896,0,0,0,0,0,0
2.509998,-0.8674718,0.7475448,0,0,0,0,0,0,0,0,1,0,0,0,0,0,0,0,0,0,0,-0.07177734,-0.996582,-0.2662354,0,0,0,0,0,0
2.519998,-0.8836871,0.731741,0,0,0,0,0,0,0,0,0,0,0,0,0,0,0,0,-0.01349382,0.02673776,-0.01449336,-0.07421875,-0.9407959,-0.2913818,0,0,0,0,0,0
2.529998,-0.8918174,0.7238518,0,0,0,0,0,0,0,0,0,0,0,0,0,0,0,0,0,0,0,-0.05883789,-0.9973145,-0.2752686,0,0,0,0,0,0
2.539998,-0.8999631,0.7159706,0,0,0,0,0,0,0,0,0,0,0,0,0,0,0,0,0,0,0,-0.08691406,-0.9058838,-0.3148193,0,0,0,0,0,0
2.549998,-0.8993645,0.7075,0,0,0,0,0,0,0,0,0,0,0,0,0,0,0,0,0,0,0,-0.06274414,-0.9031982,-0.3475342,0,0,0,0,0,0
2.559998,-0.9075292,0.6996371,0,0,0,0,0,0,0,0,0,0,0,0,0,0,0,0,0,0,0,-0.04077148,-0.9360352,-0.3417969,0,0,0,0,0,0
2.569998,-0.9075292,0.6996371,0,0,0,0,0,0,0,0,0,0,0,0,0,0,0,0,-0.01299405,0.009495651,-0.041481,-0.03479004,-0.9510498,-0.3482666,0,0,0,0,0,0
2.579998,-0.91571,0.691781,0,0,0,0,0,0,0,0,0,0,0,0,0,0,0,0,0,0,0,-0.0324707,-0.9393311,-0.3391113,0,0,0,0,0,0
2.589998,-0.91571,0.691781,0,0,0,0,0,0,0,0,0,0,0,0,0,0,0,0,0,0,0,-0.0291748,-0.9680176,-0.3239746,0,0,0,0,0,0
2.599998,-0.9151183,0.6833416,0,0,0,0,0,0,0,0,0,0,0,0,0,0,0,0,0,0,0,-0.03540039,-0.9645996,-0.3122559,0,0,0,0,0,0
2.609998,-0.9151183,0.6833416,0,0,0,0,0,0,0,0,0,0,0,0,0,0,0,0,0,0,0,-0.04138184,-0.9775391,-0.3117676,0,0,0,0,0,0
2.619998,-0.9151183,0.6833416,0,0,0,0,0,0,0,0,0,0,0,0,0,0,0,0,0,0,0,-0.04089355,-0.9869385,-0.2989502,0,0,0,0,0,0
2.629998,-0.9151183,0.6833416,0,0,0,0,0,0,0,0,0,0,0,0,0,0,0,0,0,0,0,-0.07189941,-0.9489746,-0.2750244,0,0,0,0,0,0
2.639998,-0.9151183,0.6833416,0,0,0,0,0,0,0,0,0,0,0,0,0,0,0,0,0,0,0,-0.09143066,-0.9467773,-0.2684326,0,0,0,0,0,0
2.649998,-0.9151183,0.6833416,0,0,0,0,0,0,0,0,0,0,0,0,0,0,0,0,0,0,0,-0.09338379,-0.9854736,-0.2318115,0,0,0,0,0,0
2.659998,-0.923907,0.6839312,0,0,0,0,0,0,0,0,0,0,0,0,0,0,0,0,0.03648626,0.006247648,0.02349116,-0.0657959,-1.043213,-0.2519531,0,0,0,0,0,0
2.669998,-0.923907,0.6839312,0,0,0,0,0,0,0,0,0,0,0,0,0,0,0,0,0,0,0,-0.03222656,-1.042969,-0.2718506,0,0,0,0,0,0
2.679998,-0.91571,0.691781,0,0,0,0,0,0,0,0,0,0,0,0,0,1,0,0,0,0,0,0.0007324219,-1.085693,-0.2832031,0,0,0,0,0,0
2.689998,-0.8993645,0.7075,0,0,0,0,0,0,0,0,0,0,0,0,0,1,0,0,0,0,0,-0.07214355,-0.9890137,-0.2995605,0,0,0,0,0,0
2.699998,-0.8918174,0.7238518,0,0,0,0,0,0,0,0,0,0,0,0,0,1,0,0,0,0,0,-0.07226563,-0.8756104,-0.3447266,0,0,0,0,0,0
2.709998,-0.8918174,0.7238518,0,0,0,0,0,0,0,0,0,0,0,0,0,1,0,0,0,0,0,-0.07446289,-0.8276367,-0.3363037,0,0,0,0,0,0
2.719998,-0.8830822,0.7232483,0,0,0,0,0,0,0,0,0,0,0,0,0,1,0,0,0,0,0,-0.07067871,-0.8758545,-0.2962646,0,0,0,0,0,0
2.729998,-0.8830822,0.7232483,0,0,0,0,0,0,0,0,0,0,0,0,0,1,0,0,0,0,0,-0.04296875,-0.9248047,-0.355835,0,0,0,0,0,0
2.739998,-0.8830822,0.7232483,0.1056914,-0.05377283,0,0,0,0,0,0,0,0,0,0,0,1,0,0,0,0,0,-0.04382324,-0.9746094,-0.322998,0,0,0,0,0,0
2.749998,-0.8836871,0.731741,0.2973299,-0.1411566,0,0,0,0,0,0,0,0,0,0,0,1,0,0,0,0,0,-0.05700684,-1.010498,-0.2806396,0,0,0,0,0,0
2.759998,-0.8830822,0.7232483,0.5241135,-0.21457,0,0,0,0,0,0,0,0,0,0,0,1,0,0,0.0189913,-0.01524302,0.0537254,-0.05395508,-1.005859,-0.2860107,0,0,0,0,0,0
2.769998,-0.8830822,0.7232483,0.705095,-0.242493,0,0,0,0,0,0,0,0,0,0,0,1,0,0,0,0,0,-0.06005859,-1.006226,-0.3033447,0,0,0,0,0,0
2.779998,-0.8830822,0.7232483,0.8780372,-0.2591564,0,0,0,0,0,0,0,0,0,0,0,1,0,0,0.02199172,-0.01099586,0.06397591,-0.06616211,-0.9827881,-0.2961426,0,0,0,0,0,0
2.789998,-0.8830822,0.7232483,1,-0.2802319,0,0,0,0,0,0,0,0,0,0,0,1,0,0,0.004382519,-0.01061031,0.03690542,-0.08007813,-0.9763184,-0.2634277,0,0,0,0,0,0
2.799998,-0.8830822,0.7232483,1,-0.2882255,0,0,0,0,0,0,0,0,0,0,0,1,0,0,0,0,0,-0.02990723,-0.9937744,-0.2946777,0,0,0,0,0,0
2.809998,-0.8918174,0.7238518,1,-0.2882255,0,0,0,0,0,0,0,0,0,0,0,1,0,0,0,0,0,-0.07885742,-0.947876,-0.31604,0,0,0,0,0,0
2.819998,-0.8918174,0.7238518,1,-0.2962267,0,0,0,0,0,0,0,0,0,0,0,1,0,0,-0.01249428,-0.01299405,-0.02548833,-0.07299805,-0.9348145,-0.3286133,0,0,0,0,0,0
2.829998,-0.8993645,0.7075,1,-0.2962267,0,0,0,0,0,0,0,0,0,0,0,1,0,0,0,0,0,-0.08508301,-0.9473877,-0.3295898,0,0,0,0,0,0
2.839998,-0.923907,0.6839312,1,-0.2962267,0,0,0,0,0,0,0,0,0,0,0,1,0,0,0,0,0,-0.07629395,-0.9554443,-0.3425293,0,0,0,0,0,0
2.849998,-0.9309547,0.6592598,1,-0.2962267,0,0,0,0,0,0,0,0,0,0,0,1,0,0,0,0,0,-0.07141113,-0.9754639,-0.331543,0,0,0,0,0,0
2.859998,-0.9545932,0.6190876,1,-0.2962267,0,0,0,0,0,0,0,0,0,0,0,1,0,0,0,0,0,-0.05773926,-0.99646,-0.2648926,0,0,0,0,0,0
2.869998,-0.9695654,0.5785473,1,-0.2962267,0,0,0,0,0,0,0,0,0,0,0,1,0,0,0,0,0,-0.02563477,-1.043091,-0.3132324,0,0,0,0,0,0
2.879998,-0.976846,0.5542106,1,-0.2962267,0,0,0,0,0,0,0,0,0,0,0,1,0,0,0,0,0,-0.02880859,-1.053833,-0.2913818,0,0,0,0,0,0
2.889998,-0.9920977,0.5139784,1,-0.3202776,0,0,0,0,0,0,0,0,0,0,0,1,0,0,0,0,0,-0.03527832,-1.032959,-0.2816162,0,0,0,0,0,0
2.899998,-1,0.4980331,1,-0.3444016,0,0,0,0,0,0,0,0,0,0,0,0,0,0,0,0,0,-0.06347656,-0.9517822,-0.2678223,0,0,0,0,0,0
2.909998,-1,0.4739094,1,-0.3524597,0,0,0,0,0,0,0,0,0,0,0,0,0,0,0,0,0,-0.05932617,-0.921875,-0.3284912,0,0,0,0,0,0
2.919998,-1,0.4498426,1,-0.3605264,0,0,0,0,0,0,0,0,0,0,0,0,0,0,0,0,0,-0.08300781,-0.8980713,-0.3433838,0,0,0,0,0,0
2.929998,-1,0.4091095,1,-0.3605264,0,0,0,0,0,0,0,0,0,0,0,0,0,0,0,0,0,-0.1246338,-0.9278564,-0.2166748,0,0,0,0,0,0
2.939998,-1,0.3847782,1,-0.3605264,0,0,0,0,0,0,0,0,0,0,0,0,0,0,0,0,0,-0.1047363,-1.007446,-0.1871338,0,0,0,0,0,0
2.949998,-1,0.3605264,0.9286818,-0.3565825,0,0,0,0,0,0,0,0,0,0,0,0,0,0,0,0,0,-0.1257324,-0.9797363,-0.2600098,0,0,0,0,0,0
2.959998,-1,0.3524597,0.8162456,-0.2874104,0,0,0,0,0,0,0,0,0,0,0,0,0,0,0,0,0,-0.1120605,-0.963501,-0.2747803,0,0,0,0,0,0
2.969998,-1,0.3444016,0.7766488,-0.2311004,0,0,0,0,0,0,0,0,0,0,0,1,0,0,0,0,0,-0.09594727,-0.9832764,-0.2679443,0,0,0,0,0,0
2.979998,-1,0.3444016,0.7629524,-0.1390603,0,0,0,0,0,0,0,0,0,0,0,1,0,0,0,0,0,-0.08508301,-0.956665,-0.2636719,0,0,0,0,0,0
2.989998,-1,0.3444016,0.760453,-0.04869897,0,0,0,0,0,0,0,0,0,0,0,1,0,0,-0.07122318,-0.0124953,-0.02673993,-0.05761719,-0.940918,-0.3085938,0,0,0,0,0,0
2.999998,-1,0.3444016,0.7600945,-0.003744307,0,0,0,0,0,0,0,0,0,0,0,1,0,0,0,0,0,-0.06604004,-0.9886475,-0.1916504,0,0,0,0,0,0
3.009998,-1,0.3444016,0.7699232,0.06384729,0,0,0,0,0,0,0,0,0,0,0,1,0,0,0,0,0,-0.03503418,-0.9327393,-0.378418,0,0,0,0,0,0
3.019998,-1,0.3444016,0.7986447,0.1097663,0,0,0,0,0,0,0,0,0,0,0,1,0,0,-0.01949107,-0.0362334,-0.02198993,-0.0526123,-0.9256592,-0.3786621,0,0,0,0,0,0
3.029998,-1,0.336352,0.8083089,0.125231,0,0,0,0,0,0,0,0,0,0,0,1,0,0,0,0,0,-0.04846191,-0.9196777,-0.3457031,0,0,0,0,0,0
3.039998,-1,0.3202776,0.8269344,0.1333765,0,0,0,0,0,0,0,0,0,0,0,1,0,0,0,0,0,-0.04052734,-0.9418945,-0.315918,0,0,0,0,0,0
3.049998,-1,0.3122526,0.8544987,0.1341141,0,0,0,0,0,0,0,0,0,0,0,1,0,0,0,0,0,-0.02734375,-0.9525146,-0.3261719,0,0,0,0,0,0
3.059998,-1,0.3042357,0.8820719,0.1348145,0,0,0,0,0,0,0,0,0,0,0,1,0,0,0,0,0,-0.04003906,-0.9676514,-0.2958984,0,0,0,0,0,0
3.069998,-1,0.2962267,0.9280447,0.1359061,0,0,0,0,0,0,0,0,0,0,0,1,0,0,0,0,0,-0.04614258,-1.003906,-0.2355957,0,0,0,0,0,0
3.079998,-1,0.2962267,0.9464392,0.1363184,0,0,0,0,0,0,0,0,0,0,0,1,0,0,0,0,0,-0.01867676,-1.012573,-0.2792969,0,0,0,0,0,0
3.089998,-1,0.2962267,0.9639882,0.09756966,0,0,0,0,0,0,0,0,0,0,0,1,0,0,0,0,0,-0.003540039,-0.9936523,-0.3220215,0,0,0,0,0,0
3.099998,-1,0.2962267,0.9908403,0.02741455,0,0,0,0,0,0,0,0,0,0,0,1,0,0,0,0,0,-0.02685547,-0.9849854,-0.3535156,0,0,0,0,0,0
3.109998,-1,0.2962267,1,-0.02745281,0,0,0,0,0,0,0,0,0,0,0,1,0,0,0,0,0,-0.05114746,-0.9545898,-0.3284912,0,0,0,0,0,0
3.119998,-1,0.3122526,1,-0.09812176,0,0,0,0,0,0,0,0,0,0,0,0,0,0,0,0,0,-0.08569336,-0.9483643,-0.3175049,0,0,0,0,0,0
3.129997,-1,0.3202776,1,-0.1296006,0,0,0,0,0,0,0,0,0,0,0,0,0,0,0,0,0,-0.09899902,-0.961792,-0.2984619,0,0,0,0,0,0
3.139997,-1,0.3283107,1,-0.1611441,0,0,0,0,0,0,0,0,0,0,0,0,0,0,0,0,0,-0.1166992,-0.9589844,-0.2679443,0,0,0,0,0,0
3.149997,-1,0.3444016,1,-0.1690417,0,0,0,0,0,0,0,0,0,0,0,0,0,0,0,0,0,-0.1239014,-0.9509277,-0.2597656,0,0,0,0,0,0
3.159997,-1,0.3444016,1,-0.1769445,0,0,0,0,0,0,0,0,0,0,0,0,0,0,0,0,0,-0.1181641,-0.9825439,-0.2145996,0,0,0,0,0,0
3.169997,-1,0.3605264,1,-0.1769445,0,0,0,0,0,0,0,0,0,0,0,0,0,0,0,0,0,-0.08837891,-1.002808,-0.2358398,0,0,0,0,0,0
3.179997,-1,0.3766855,1,-0.1769445,0,0,0,0,0,0,0,0,0,0,0,0,0,0,-0.02722015,-0.01430211,-0.01822366,-0.09924316,-1.00293,-0.2810059,0,0,0,0,0,0
3.189997,-1,0.3847782,1,-0.1769445,0,0,0,0,0,0,0,0,0,0,0,0,0,0,0,0,0,-0.09777832,-1.008667,-0.2619629,0,0,0,0,0,0
3.199997,-1,0.4091095,1,-0.1690417,0,0,0,0,0,0,0,0,0,0,0,1,0,0,0,0,0,-0.08337402,-1.010864,-0.2353516,0,0,0,0,0,0
3.209997,-1,0.4416777,1,-0.1374799,0,0,0,0,0,0,0,0,0,0,0,1,0,0,-0.05536302,-0.009227169,-0.01845434,-0.04736328,-0.9750977,-0.2774658,0,0,0,0,0,0
3.219997,-1,0.4657205,1,-0.113854,0,0,0,0,0,0,0,0,0,0,0,1,0,0,0,0,0,-0.02575684,-0.9384766,-0.3305664,0,0,0,0,0,0
3.229997,-1,0.5144897,1,-0.07454614,0,0,0,0,0,0,0,0,0,0,0,1,0,0,0,0,0,-0.02514648,-0.9095459,-0.3406982,0,0,0,0,0,0
3.239997,-0.9857708,0.5547456,1,-0.05099206,0,0,0,0,0,0,0,0,0,0,0,1,0,0,0,0,0,-0.03161621,-0.8988037,-0.3459473,0,0,0,0,0,0
3.249997,-0.9784681,0.5790934,1,-0.05099206,0,0,0,0,0,0,0,0,0,0,0,1,0,0,0,0,0,-0.03088379,-0.9023438,-0.3502197,0,0,0,0,0,0
3.259997,-0.9628969,0.6112997,1,-0.04314433,0,0,0,0,0,0,0,0,0,0,0,1,0,0,0,0,0,-0.03686523,-0.9056396,-0.324585,0,0,0,0,0,0
3.269997,-0.9557259,0.6358177,1,-0.04314433,0,0,0,0,0,0,0,0,0,0,0,1,0,0,0,0,0,-0.0246582,-0.9787598,-0.3156738,0,0,0,0,0,0
3.279997,-0.9391946,0.6514414,1,-0.04314433,0,0,0,0,0,0,0,0,0,0,0,1,0,0,0,0,0,-0.01586914,-1.008911,-0.3031006,0,0,0,0,0,0
3.289997,-0.923907,0.6839312,1,-0.08240198,0,0,0,0,0,0,0,0,0,0,0,0,0,0,0.06646956,0.007496567,0.05972265,-0.003173828,-1.029541,-0.2878418,0,0,0,0,0,0
3.299997,-0.8999631,0.7159706,1,-0.1611441,0,0,0,0,0,0,0,0,0,0,0,0,0,0,0,0,0,-0.02514648,-0.9979248,-0.2805176,0,0,0,0,0,0
3.309997,-0.892418,0.7323431,1,-0.2086106,0,0,0,0,0,0,0,0,0,0,0,0,0,0,0.006497554,0.009746331,0.02673993,-0.08251953,-0.9138184,-0.2530518,0,0,0,0,0,0
3.319997,-0.8755721,0.7396386,1,-0.2403741,0,0,0,0,0,0,0,0,0,0,0,0,0,0,0,0,0,-0.0793457,-0.9505615,-0.2506104,0,0,0,0,0,0
3.329997,-0.8674718,0.7475448,1,-0.2642672,0,0,0,0,0,0,0,0,0,0,0,0,0,0,0,0,0,-0.1247559,-0.9295654,-0.2602539,0,0,0,0,0,0
3.339997,-0.8599966,0.763997,1,-0.2722459,0,0,0,0,0,0,0,0,0,0,0,0,0,0,-0.006247648,0.02149191,-0.01849304,-0.08410645,-1.130005,-0.1262207,0,0,0,0,0,0
3.349997,-0.8525369,0.7804915,1,-0.2722459,0,0,0,0,0,0,0,0,0,0,0,0,0,0,0,0,0,-0.121582,-1.038086,-0.2537842,0,0,0,0,0,0
3.359997,-0.836441,0.7964199,1,-0.2722459,0,0,0,0,0,0,0,0,0,0,0,0,0,0,0,0,0,-0.1199951,-0.9921875,-0.3056641,0,0,0,0,0,0
3.369997,-0.8117793,0.8117793,1,-0.2562958,0,0,0,0,0,0,0,0,0,0,0,1,0,0,-0.06971806,0.00224897,-0.01849153,-0.1027832,-1.039917,-0.2038574,0,0,0,0,0,0
3.379997,-0.8037875,0.8197833,1,-0.2165419,0,0,0,0,0,0,0,0,0,0,0,1,0,0,0,0,0,-0.08068848,-0.972168,-0.2508545,0,0,0,0,0,0
3.389997,-0.7798811,0.8438712,1,-0.1611441,0,0,0,0,0,0,0,0,0,0,0,1,0,0,0,0,0,-0.02331543,-0.9234619,-0.3945313,0,0,0,0,0,0
3.399997,-0.7646044,0.8686867,1,-0.1296006,0,0,0,0,0,0,0,0,0,0,0,1,0,0,-0.04622883,-0.03398444,-0.03748283,-0.04187012,-0.8814697,-0.3905029,0,0,0,0,0,0
3.409997,-0.7566752,0.8767824,1,-0.1217254,0,0,0,0,0,0,0,0,0,0,0,1,0,0,0,0,0,-0.05480957,-0.8916016,-0.3623047,0,0,0,0,0,0
3.419997,-0.7402433,0.8842907,1,-0.1217254,0,0,0,0,0,0,0,0,0,0,0,1,0,0,0,0,0,-0.04699707,-0.8999023,-0.3282471,0,0,0,0,0,0
3.429997,-0.7238518,0.8918174,1,-0.1217254,0,0,0,0,0,0,0,0,0,0,0,1,0,0,0.03298422,-0.01337822,-0.005535814,-0.02416992,-0.9211426,-0.2841797,0,0,0,0,0,0
3.439997,-0.7075,0.8993645,1,-0.1217254,0,0,0,0,0,0,0,0,0,0,0,1,0,0,0,0,0,-0.02087402,-0.9588623,-0.3095703,0,0,0,0,0,0
3.449997,-0.6760875,0.9321206,1,-0.1217254,0,0,0,0,0,0,0,0,0,0,0,1,0,0,0,0,0,0.002197266,-1.004028,-0.3222656,0,0,0,0,0,0
3.459997,-0.6358177,0.9557259,1,-0.1769445,0,0,0,0,0,0,0,0,0,0,0,1,0,0,0.07572149,0.01599398,0.06497554,-0.003173828,-1.029785,-0.28125,0,0,0,0,0,0
3.469997,-0.6040648,0.980105,1,-0.2324234,0,0,0,0,0,0,0,0,0,0,0,0,0,0,0,0,0,-0.0007324219,-1.011475,-0.2967529,0,0,0,0,0,0
3.479997,-0.547518,1,1,-0.3042357,0,0,0,0,0,0,0,0,0,0,0,0,0,0,0,0,0,-0.05993652,-0.9887695,-0.269043,0,0,0,0,0,0
3.489997,-0.5149953,1,1,-0.3524597,0,0,0,0,0,0,0,0,0,0,0,0,0,0,0,0,0,-0.07995605,-0.9874268,-0.289917,0,0,0,0,0,0
3.499997,-0.4662001,1,1,-0.4009901,0,0,0,0,0,0,0,0,0,0,0,0,0,0,0,0,0,-0.09570313,-0.9121094,-0.2698975,0,0,0,0,0,0
3.509997,-0.4253754,1,1,-0.4253754,0,0,0,0,0,0,0,0,0,0,0,0,0,0,0,0,0,-0.09020996,-0.9716797,-0.2718506,0,0,0,0,0,0
3.519997,-0.3928797,1,1,-0.4416777,0,0,0,0,0,0,0,0,0,0,0,0,0,0,0,0,0,-0.1063232,-0.9659424,-0.2805176,0,0,0,0,0,0
3.529997,-0.3686016,1,1,-0.4416777,0,0,0,0,0,0,0,0,0,0,0,0,0,0,0,0,0,-0.1040039,-1.044678,-0.2268066,0,0,0,0,0,0
3.539997,-0.336352,1,1,-0.4416777,0,0,0,0,0,0,0,0,0,0,0,0,0,0,0,0,0,-0.137085,-1.012817,-0.2683105,0,0,0,0,0,0
3.549997,-0.3122526,1,1,-0.4416777,0,0,0,0,0,0,0,0,0,0,0,0,0,0,0,0,0,-0.133667,-1.010254,-0.2701416,0,0,0,0,0,0
3.559997,-0.2962267,1,1,-0.4330592,0,0,0,0,0,0,0,0,0,0,0,1,0,0,0,0,0,-0.1361084,-1.109131,-0.1306152,0,0,0,0,0,0
3.569997,-0.2722459,1,1,-0.3444016,0,0,0,0,0,0,0,0,0,0,0,1,0,0,-0.07843094,0.007381736,0.003690868,-0.07263184,-0.875,-0.2810059,0,0,0,0,0,0
3.579997,-0.2562958,1,1,-0.2642672,0,0,0,0,0,0,0,0,0,0,0,1,0,0,0,0,0,-0.03393555,-0.9460449,-0.4276123,0,0,0,0,0,0
3.589997,-0.2403741,1,1,-0.1690417,0,0,0,0,0,0,0,0,0,0,0,1,0,0,0,0,0,-0.06933594,-0.9278564,-0.3918457,0,0,0,0,0,0
3.599997,-0.2403741,1,1,-0.09812176,0,0,0,0,0,0,0,0,0,0,0,1,0,0,-0.03073592,-0.04972723,-0.01149474,-0.02429199,-0.9338379,-0.3881836,0,0,0,0,0,0
3.609997,-0.2403741,1,1,-0.05884144,0,0,0,0,0,0,0,0,0,0,0,1,0,0,0,0,0,-0.02563477,-0.8930664,-0.3754883,0,0,0,0,0,0
3.619997,-0.2403741,1,1,-0.02745281,0,0,0,0,0,0,0,0,0,0,0,1,0,0,0,0,0,-0.02697754,-0.9215088,-0.3508301,0,0,0,0,0,0
3.629997,-0.2403741,1,1,-0.01176485,0,0,0,0,0,0,0,0,0,0,0,1,0,0,0.02049061,-0.03523386,0.01374371,-0.01599121,-0.9276123,-0.3417969,0,0,0,0,0,0
3.639997,-0.2403741,1,1,-0.01176485,0,0,0,0,0,0,0,0,0,0,0,1,0,0,0,0,0,-0.02392578,-0.9331055,-0.3123779,0,0,0,0,0,0
3.649997,-0.2403741,1,1,-0.01176485,0,0,0,0,0,0,0,0,0,0,0,1,0,0,0,0,0,-0.02087402,-0.9777832,-0.2324219,0,0,0,0,0,0
3.659997,-0.2403741,1,1,-0.01176485,0,0,0,0,0,0,0,0,0,0,0,1,0,0,0,0,0,0.0135498,-1.013184,-0.2619629,0,0,0,0,0,0
3.669997,-0.2403741,1,1,-0.05884144,0,0,0,0,0,0,0,0,0,0,0,1,0,0,0,0,0,0.01306152,-1.003052,-0.3291016,0,0,0,0,0,0
3.679997,-0.2403741,1,1,-0.1453634,0,0,0,0,0,0,0,0,0,0,0,1,0,0,0,0,0,-0.02709961,-1.018921,-0.3450928,0,0,0,0,0,0
3.689997,-0.2403741,1,1,-0.2006854,0,0,0,0,0,0,0,0,0,0,0,0,0,0,0,0,0,-0.07043457,-0.9633789,-0.3139648,0,0,0,0,0,0
3.699997,-0.2403741,1,1,-0.2722459,0,0,0,0,0,0,0,0,0,0,0,0,0,0,0,0,0,-0.112793,-0.9592285,-0.2862549,0,0,0,0,0,0
3.709997,-0.2403741,1,1,-0.3042357,0,0,0,0,0,0,0,0,0,0,0,0,0,0,0,0,0,-0.1307373,-0.9284668,-0.2775879,0,0,0,0,0,0
3.719997,-0.2403741,1,1,-0.3202776,0,0,0,0,0,0,0,0,0,0,0,0,0,0,0,0,0,-0.1270752,-0.9451904,-0.2905273,0,0,0,0,0,0
3.729997,-0.2403741,1,1,-0.336352,0,0,0,0,0,0,0,0,0,0,0,0,0,0,0,0,0,-0.1463623,-0.9831543,-0.2285156,0,0,0,0,0,0
3.739997,-0.2403741,1,1,-0.3283107,0,0,0,0,0,0,0,0,0,0,0,0,0,0,-0.01124577,-0.007497177,-0.01399473,-0.1582031,-1.00708,-0.2581787,0,0,0,0,0,0
3.749997,-0.2483314,1,0.972283,-0.3267186,0,0,0,0,0,0,0,0,0,0,0,0,0,0,0,0,0,-0.154541,-1.020142,-0.2478027,0,0,0,0,0,0
3.759997,-0.2562958,1,0.9422259,-0.2697659,0,0,0,0,0,0,0,0,0,0,0,1,0,0,0,0,0,-0.1413574,-1.086426,-0.1740723,0,0,0,0,0,0
3.769997,-0.2642672,1,0.9101089,-0.1510393,0,0,0,0,0,0,0,0,0,0,0,1,0,0,-0.1019616,-0.0009996236,-0.003248777,-0.1065674,-1.016235,-0.1998291,0,0,0,0,0,0
3.779997,-0.2642672,1,0.8896443,-0.0577691,0,0,0,0,0,0,0,0,0,0,0,1,0,0,0,0,0,-0.02160645,-0.8891602,-0.3856201,0,0,0,0,0,0
3.789997,-0.2722459,1,0.8619825,0.0574655,0,0,0,0,0,0,0,0,0,0,0,1,0,0,-0.08246895,-0.03448702,-0.06247647,-0.08093262,-0.9050293,-0.3978271,0,0,0,0,0,0
3.799997,-0.2962267,1,0.8195268,0.1791524,0,0,0,0,0,0,0,0,0,0,0,1,0,0,0,0,0,-0.03967285,-0.8961182,-0.3840332,0,0,0,0,0,0
3.809997,-0.3283107,1,0.7948418,0.2319873,0,0,0,0,0,0,0,0,0,0,0,1,0,0,0,0,0,-0.03259277,-0.8927002,-0.3581543,0,0,0,0,0,0
3.819997,-0.3605264,1,0.7790375,0.269813,0,0,0,0,0,0,0,0,0,0,0,1,0,0,0.03523673,-0.03248777,-0.02748965,-0.01977539,-0.8919678,-0.3312988,0,0,0,0,0,0
3.829997,-0.3847782,1,0.7800626,0.2853887,0,0,0,0,0,0,0,0,0,0,0,1,0,0,0,0,0,-0.007202148,-0.9118652,-0.3442383,0,0,0,0,0,0
3.839997,-0.4172379,1,0.7715633,0.2926619,0,0,0,0,0,0,0,0,0,0,0,1,0,0,0,0,0,-0.02392578,-0.9301758,-0.2949219,0,0,0,0,0,0
3.849997,-0.433522,1,0.7625432,0.2921185,0,0,0,0,0,0,0,0,0,0,0,1,0,0,0,0,0,-0.009765625,-0.9389648,-0.2294922,0,0,0,0,0,0
3.859997,-0.4498426,1,0.7445197,0.2910051,0,0,0,0,0,0,0,0,0,0,0,1,0,0,0,0,0,0.01623535,-1.009277,-0.284668,0,0,0,0,0,0
3.869997,-0.4662001,1,0.6944522,0.2191052,0,0,0,0,0,0,0,0,0,0,0,1,0,0,0,0,0,-0.002075195,-1.018188,-0.2904053,0,0,0,0,0,0
3.879997,-0.4662001,1,0.654691,0.1645871,0,0,0,0,0,0,0,0,0,0,0,0,0,0,0,0,0,-0.02148438,-1.024536,-0.3116455,0,0,0,0,0,0
3.889997,-0.4825947,1,0.6051292,0.08951616,0,0,0,0,0,0,0,0,0,0,0,0,0,0,0,0,0,-0.1016846,-0.958374,-0.2988281,0,0,0,0,0,0
3.899997,-0.4990265,1,0.5390818,0.03825741,0,0,0,0,0,0,0,0,0,0,0,0,0,0,0,0,0,-0.1290283,-0.8969727,-0.319458,0,0,0,0,0,0
3.909997,-0.5232409,1,0.4927082,0.02378591,0,0,0,0,0,0,0,0,0,0,0,0,0,0,0,0,0,-0.1585693,-0.9204102,-0.2486572,0,0,0,0,0,0
3.919997,-0.547518,1,0.4187329,0.009737972,0,0,0,0,0,0,0,0,0,0,0,0,0,0,0,0,0,-0.1760254,-0.9659424,-0.2177734,0,0,0,0,0,0
3.929997,-0.5718616,0.995759,0.317255,0.008895,0,0,0,0,0,0,0,0,0,0,0,0,0,0,-0.004843837,0.006919767,-0.03390685,-0.1329346,-1.100098,-0.1518555,0,0,0,0,0,0
3.939997,-0.579634,0.9873765,0.2526869,0.00815119,0,0,0,0,0,0,0,0,0,0,0,0,0,0,0,0,0,-0.1512451,-1.069702,-0.2580566,0,0,0,0,0,0
3.949997,-0.5957312,0.979558,0.1539815,0.02819379,0,0,0,0,0,0,0,0,0,0,0,0,0,0,0,0,0,-0.1490479,-0.9810791,-0.2810059,0,0,0,0,0,0
3.959997,-0.6118565,0.9717721,0.1077839,0.04201746,0,0,0,0,0,0,0,0,0,0,0,1,0,0,-0.06746911,-0.02049061,-0.02673776,-0.1120605,-1.093628,-0.1646729,0,0,0,0,0,0
3.969997,-0.6196507,0.9634567,0.1023853,0.07534011,0,0,0,0,0,0,0,0,0,0,0,1,0,0,0,0,0,-0.08740234,-1.004395,-0.1815186,0,0,0,0,0,0
3.979997,-0.6280115,0.9640176,0.1177244,0.15136,0,0,0,0,0,0,0,0,0,0,0,1,0,0,0,0,0,-0.05859375,-0.8673096,-0.362793,0,0,0,0,0,0
3.989997,-0.6358177,0.9557259,0.1409557,0.2560216,0,0,0,0,0,0,0,0,0,0,0,1,0,0,-0.04872768,-0.050227,-0.05147642,-0.01879883,-0.9501953,-0.463501,0,0,0,0,0,0
3.999997,-0.6520168,0.9480243,0.1569888,0.3170559,0,0,0,0,0,0,0,0,0,0,0,1,0,0,0,0,0,-0.08520508,-0.9144287,-0.3780518,0,0,0,0,0,0
4.009997,-0.6839312,0.923907,0.1807245,0.3975939,0,0,0,0,0,0,0,0,0,0,0,1,0,0,0,0,0,-0.03540039,-0.8967285,-0.3500977,0,0,0,0,0,0
4.019997,-0.7153703,0.8912154,0.2096495,0.4708523,0,0,0,0,0,0,0,0,0,0,0,1,0,0,0.04622883,-0.04897757,-0.0172421,-0.03405762,-0.8980713,-0.347168,0,0,0,0,0,0
4.029997,-0.731741,0.8836871,0.2350904,0.5087777,0,0,0,0,0,0,0,0,0,0,0,1,0,0,0,0,0,-0.02099609,-0.925293,-0.3327637,0,0,0,0,0,0
4.039998,-0.763997,0.8599966,0.2759161,0.5482489,0,0,0,0,0,0,0,0,0,0,0,1,0,0,0,0,0,0.02172852,-1.003662,-0.2156982,0,0,0,0,0,0
4.049998,-0.7719339,0.851927,0.2987817,0.5507663,0,0,0,0,0,0,0,0,0,0,0,1,0,0,0.1129483,0.03548375,0.06547002,0.02661133,-1.033691,-0.1973877,0,0,0,0,0,0
4.059998,-0.7719339,0.851927,0.3055918,0.5428749,0,0,0,0,0,0,0,0,0,0,0,1,0,0,0,0,0,0.04406738,-1.054199,-0.2669678,0,0,0,0,0,0
4.069998,-0.7719339,0.851927,0.3016518,0.4403423,0,0,0,0,0,0,0,0,0,0,0,1,0,0,0,0,0,-0.003295898,-0.9976807,-0.3227539,0,0,0,0,0,0
4.079998,-0.7719339,0.851927,0.2875117,0.3403874,0,0,0,0,0,0,0,0,0,0,0,0,0,0,0.04083022,0.04036887,0.06735834,-0.07006836,-1.003174,-0.3218994,0,0,0,0,0,0
4.089999,-0.7719339,0.851927,0.2780265,0.2844179,0,0,0,0,0,0,0,0,0,0,0,0,0,0,0,0,0,-0.1230469,-0.9191895,-0.2963867,0,0,0,0,0,0
4.099999,-0.7719339,0.851927,0.2692372,0.2382904,0,0,0,0,0,0,0,0,0,0,0,0,0,0,0,0,0,-0.1464844,-0.8918457,-0.2352295,0,0,0,0,0,0
4.109999,-0.7719339,0.851927,0.2472273,0.2055263,0,0,0,0,0,0,0,0,0,0,0,0,0,0,0.008996612,0.01324501,-0.02049228,-0.1430664,-0.9790039,-0.1761475,0,0,0,0,0,0
4.119999,-0.7719339,0.851927,0.2393654,0.2039039,0,0,0,0,0,0,0,0,0,0,0,0,0,0,0,0,0,-0.1563721,-1.027466,-0.2104492,0,0,0,0,0,0
4.13,-0.7719339,0.851927,0.2161506,0.1988586,0,0,0,0,0,0,0,0,0,0,0,0,0,0,0,0,0,-0.1500244,-1.023926,-0.2661133,0,0,0,0,0,0
4.14,-0.7719339,0.851927,0.1897857,0.2067815,0,0,0,0,0,0,0,0,0,0,0,0,0,0,-0.0549793,-0.02923899,-0.03448702,-0.1418457,-1.010864,-0.2653809,0,0,0,0,0,0
4.15,-0.7719339,0.851927,0.1894373,0.236068,0,0,0,0,0,0,0,0,0,0,0,1,0,0,0,0,0,-0.1329346,-1.059937,-0.1983643,0,0,0,0,0,0
4.16,-0.7719339,0.851927,0.2069986,0.3343823,0,0,0,0,0,0,0,0,0,0,0,1,0,0,0,0,0,-0.09875488,-0.9746094,-0.2080078,0,0,0,0,0,0
4.170001,-0.7719339,0.851927,0.2214477,0.4463023,0,0,0,0,0,0,0,0,0,0,0,1,0,0,-0.07596521,-0.01049519,-0.04198077,-0.08166504,-0.8956299,-0.3392334,0,0,0,0,0,0
4.180001,-0.7719339,0.851927,0.2293228,0.5256785,0,0,0,0,0,0,0,0,0,0,0,1,0,0,0,0,0,0.001464844,-0.9439697,-0.4191895,0,0,0,0,0,0
4.190001,-0.7719339,0.851927,0.235876,0.60602,0,0,0,0,0,0,0,0,0,0,0,1,0,0,0,0,0,-0.03857422,-0.9335938,-0.3690186,0,0,0,0,0,0
4.200001,-0.7798811,0.8438712,0.23844,0.6419538,0,0,0,0,0,0,0,0,0,0,0,1,0,0,-0.002498855,-0.04547917,-0.03173546,-0.02075195,-0.9205322,-0.3444824,0,0,0,0,0,0
4.210001,-0.7878387,0.8358289,0.2390514,0.6509553,0,0,0,0,0,0,0,0,0,0,0,1,0,0,0,0,0,-0.03540039,-0.9139404,-0.3051758,0,0,0,0,0,0
4.220002,-0.8117793,0.8117793,0.2472501,0.6605638,0,0,0,0,0,0,0,0,0,0,0,1,0,0,0,0,0,-0.01037598,-0.9716797,-0.2651367,0,0,0,0,0,0
4.230002,-0.8277996,0.7958074,0.2472501,0.6605638,0,0,0,0,0,0,0,0,0,0,0,1,0,0,0.0544403,0.0110726,0.01660891,-0.01855469,-1.013672,-0.2442627,0,0,0,0,0,0
4.240002,-0.8444824,0.7884504,0.2466383,0.6515668,0,0,0,0,0,0,0,0,0,0,0,1,0,0,0,0,0,-0.002075195,-1.033081,-0.2540283,0,0,0,0,0,0
4.250002,-0.8438712,0.7798811,0.2434033,0.6066918,0,0,0,0,0,0,0,0,0,0,0,1,0,0,0,0,0,0.02099609,-1.026489,-0.2668457,0,0,0,0,0,0
4.260003,-0.851927,0.7719339,0.2350904,0.5087777,0,0,0,0,0,0,0,0,0,0,0,0,0,0,0.03548664,0.04373353,0.05747836,-0.01074219,-1.018921,-0.3129883,0,0,0,0,0,0
4.270003,-0.8513149,0.7633857,0.2287559,0.447269,0,0,0,0,0,0,0,0,0,0,0,0,0,0,0,0,0,-0.05310059,-0.9681396,-0.3192139,0,0,0,0,0,0
4.280003,-0.8593862,0.7554604,0.2167011,0.3525435,0,0,0,0,0,0,0,0,0,0,0,0,0,0,0,0,0,-0.1239014,-0.9083252,-0.2746582,0,0,0,0,0,0
4.290003,-0.8755721,0.7396386,0.210204,0.3105999,0,0,0,0,0,0,0,0,0,0,0,0,0,0,0,0,0,-0.130127,-0.9101563,-0.2205811,0,0,0,0,0,0
4.300004,-0.8912154,0.7153703,0.2029762,0.2696252,0,0,0,0,0,0,0,0,0,0,0,0,0,0,0.003498398,0.01924119,-0.01199451,-0.1208496,-0.9604492,-0.2435303,0,0,0,0,0,0
4.310004,-0.91571,0.691781,0.1926876,0.2519761,0,0,0,0,0,0,0,0,0,0,0,0,0,0,-0.009495651,0.009745537,-0.02223982,-0.1290283,-0.9709473,-0.239624,0,0,0,0,0,0
4.320004,-0.923907,0.6839312,0.1855774,0.2503822,0,0,0,0,0,0,0,0,0,0,0,0,0,0,0,0,0,-0.1125488,-1.027588,-0.2364502,0,0,0,0,0,0
4.330004,-0.922732,0.6670833,0.1785399,0.2487851,0,0,0,0,0,0,0,0,0,0,0,0,0,0,0,0,0,-0.1429443,-0.9891357,-0.2764893,0,0,0,0,0,0
4.340004,-0.9309547,0.6592598,0.1715769,0.247187,0,0,0,0,0,0,0,0,0,0,0,0,0,0,0,0,0,-0.1326904,-0.9630127,-0.2525635,0,0,0,0,0,0
4.350005,-0.9386168,0.6430523,0.1775288,0.3207976,0,0,0,0,0,0,0,0,0,0,0,1,0,0,0,0,0,-0.1086426,-1.084229,-0.1343994,0,0,0,0,0,0
4.360005,-0.9468793,0.6352481,0.1907167,0.4249301,0,0,0,0,0,0,0,0,0,0,0,1,0,0,0,0,0,-0.07006836,-0.9295654,-0.2840576,0,0,0,0,0,0
4.370005,-0.9463074,0.6268787,0.1999231,0.5226061,0,0,0,0,0,0,0,0,0,0,0,1,0,0,0,0,0,-0.03833008,-0.9196777,-0.2873535,0,0,0,0,0,0
4.380005,-0.954028,0.6107376,0.2071709,0.6215127,0,0,0,0,0,0,0,0,0,0,0,1,0,0,0,0,0,-0.01367188,-0.9580078,-0.4291992,0,0,0,0,0,0
4.390006,-0.9690174,0.5702448,0.2104963,0.675804,0,0,0,0,0,0,0,0,0,0,0,1,0,0,-0.02029977,-0.04244498,-0.01637823,-0.03857422,-0.9372559,-0.3535156,0,0,0,0,0,0
4.400006,-0.976846,0.5542106,0.2120214,0.7030181,0,0,0,0,0,0,0,0,0,0,0,1,0,0,0,0,0,-0.02685547,-0.9266357,-0.3419189,0,0,0,0,0,0
4.410006,-0.9920977,0.5139784,0.2125111,0.7120985,0,0,0,0,0,0,0,0,0,0,0,1,0,0,0,0,0,-0.04370117,-0.9144287,-0.3029785,0,0,0,0,0,0
4.420006,-1,0.4821076,0.2125111,0.7120985,0,0,0,0,0,0,0,0,0,0,0,1,0,0,0.03852343,-0.01061124,0.0006920377,-0.04174805,-0.935791,-0.2972412,0,0,0,0,0,0
4.430007,-1,0.4580168,0.2125111,0.7120985,0,0,0,0,0,0,0,0,0,0,0,1,0,0,0,0,0,-0.03540039,-0.9810791,-0.2301025,0,0,0,0,0,0
4.440007,-1,0.4416777,0.2120214,0.7030181,0,0,0,0,0,0,0,0,0,0,0,1,0,0,0,0,0,0.003051758,-1.034546,-0.2716064,0,0,0,0,0,0
4.450007,-1,0.433522,0.2152409,0.63113,0,0,0,0,0,0,0,0,0,0,0,1,0,0,0.06422582,0.03873542,0.04748212,0.01086426,-1.030884,-0.3044434,0,0,0,0,0,0
4.460007,-1,0.4253754,0.2108106,0.5681167,0,0,0,0,0,0,0,0,0,0,0,1,0,0,0,0,0,-0.01672363,-1.004272,-0.3155518,0,0,0,0,0,0
4.470007,-1,0.4253754,0.2015331,0.4611351,0,0,0,0,0,0,0,0,0,0,0,0,0,0,0.03473692,0.02998871,0.03573654,-0.05505371,-0.9886475,-0.3101807,0,0,0,0,0,0
4.480008,-1,0.4253754,0.1834985,0.3637777,0,0,0,0,0,0,0,0,0,0,0,0,0,0,0.007496567,0.01749199,0.01874142,-0.08508301,-0.9763184,-0.347168,0,0,0,0,0,0
4.490008,-1,0.4253754,0.1706252,0.3195344,0,0,0,0,0,0,0,0,0,0,0,0,0,0,0,0,0,-0.144043,-0.899292,-0.2427979,0,0,0,0,0,0
4.500008,-1,0.4009901,0.1409557,0.2560216,0,0,0,0,0,0,0,0,0,0,0,0,0,0,0,0,0,-0.1304932,-0.9439697,-0.223999,0,0,0,0,0,0
4.510008,-1,0.3766855,0.1172079,0.2262385,0,0,0,0,0,0,0,0,0,0,0,0,0,0,0.008496109,0.002998627,-0.02698764,-0.1380615,-0.9470215,-0.2554932,0,0,0,0,0,0
4.520009,-1,0.3686016,0.1110014,0.2247102,0,0,0,0,0,0,0,0,0,0,0,0,0,0,0,0,0,-0.1005859,-0.9827881,-0.197876,0,0,0,0,0,0
4.530009,-1,0.3444016,0.09885195,0.221749,0,0,0,0,0,0,0,0,0,0,0,0,0,0,0,0,0,-0.1383057,-1.0354,-0.2509766,0,0,0,0,0,0
4.540009,-1,0.3202776,0.08705039,0.2189449,0,0,0,0,0,0,0,0,0,0,0,0,0,0,0,0,0,-0.1363525,-0.9775391,-0.2875977,0,0,0,0,0,0
4.550009,-1,0.2722459,0.0902883,0.2883401,0,0,0,0,0,0,0,0,0,0,0,1,0,0,0,0,0,-0.1170654,-1.084717,-0.1574707,0,0,0,0,0,0
4.560009,-1,0.2165419,0.1040752,0.4599454,0,0,0,0,0,0,0,0,0,0,0,1,0,0,0,0,0,-0.09790039,-0.9550781,-0.2216797,0,0,0,0,0,0
4.57001,-1,0.1848525,0.125278,0.5977548,0,0,0,0,0,0,0,0,0,0,0,1,0,0,0,0,0,-0.07861328,-0.8356934,-0.3634033,0,0,0,0,0,0
4.58001,-1,0.113854,0.1701249,0.7825745,0,0,0,0,0,0,0,0,0,0,0,1,0,0,0,0,0,0.001464844,-0.918457,-0.4921875,0,0,0,0,0,0
4.59001,-1,0.01176485,0.2043981,0.8754408,0,0,0,0,0,0,0,0,0,0,0,1,0,0,0,0,0,-0.08178711,-0.8919678,-0.364502,0,0,0,0,0,0
4.60001,-1,-0.06669273,0.2374431,0.922525,0,0,0,0,0,0,0,0,0,0,0,1,0,0,0,0,0,-0.07006836,-0.8913574,-0.3356934,0,0,0,0,0,0
4.610011,-1,-0.1848525,0.2871468,0.9794459,0,0,0,0,0,0,0,0,0,0,0,1,0,0,0,0,0,-0.05419922,-0.9053955,-0.2818604,0,0,0,0,0,0
4.620011,-1,-0.2882255,0.336352,1,0,0,0,0,0,0,0,0,0,0,0,1,0,0,0.04797802,-0.03773272,-0.01924119,-0.0255127,-0.9604492,-0.2875977,0,0,0,0,0,0
4.630011,-1,-0.3524597,0.3605264,1,0,0,0,0,0,0,0,0,0,0,0,1,0,0,0,0,0,-0.01708984,-1.001221,-0.2324219,0,0,0,0,0,0
4.640011,-0.9961495,-0.4325908,0.3928797,1,0,0,0,0,0,0,0,0,0,0,0,1,0,0,0,0,0,0.01037598,-1.035522,-0.2037354,0,0,0,0,0,0
4.650012,-0.9731412,-0.4965006,0.3967903,0.9310822,0,0,0,0,0,0,0,0,0,0,0,1,0,0,0.04522929,0.04273043,0.04422975,0.03991699,-1.078003,-0.2678223,0,0,0,0,0,0
4.660012,-0.9568346,-0.5201051,0.3915093,0.8411635,0,0,0,0,0,0,0,0,0,0,0,1,0,0,0,0,0,0.01757813,-1.077881,-0.279541,0,0,0,0,0,0
4.670012,-0.933445,-0.5680113,0.3893586,0.6993335,0,0,0,0,0,0,0,0,0,0,0,0,0,0,0,0,0,-0.03686523,-1.02417,-0.3078613,0,0,0,0,0,0
4.680012,-0.8939448,-0.631721,0.3951314,0.587158,0,0,0,0,0,0,0,0,0,0,0,0,0,0,-0.0299883,0.04798128,0.02468268,-0.07495117,-0.9787598,-0.2813721,0,0,0,0,0,0
4.690012,-0.853813,-0.6790792,0.4254157,0.5733864,0,0,0,0,0,0,0,0,0,0,0,0,0,0,0,0,0,-0.1107178,-0.9626465,-0.3079834,0,0,0,0,0,0
4.700013,-0.7828245,-0.7669296,0.4814033,0.5709667,0,0,0,0,0,0,0,0,0,0,0,0,0,0,0,0,0,-0.1246338,-0.8800049,-0.2519531,0,0,0,0,0,0
4.710013,-0.6953552,-0.8463467,0.5559373,0.5786286,0,0,0,0,0,0,0,0,0,0,0,0,0,0,-0.01545551,0.02952694,-0.02283725,-0.06530762,-1.005249,-0.2445068,0,0,0,0,0,0
4.720013,-0.6400992,-0.8945485,0.598756,0.5911285,0,0,0,0,0,0,0,0,0,0,0,0,0,0,0,0,0,-0.09753418,-0.9691162,-0.2801514,0,0,0,0,0,0
4.730013,-0.552572,-0.9501057,0.6811641,0.6655946,0,0,0,0,0,0,0,0,0,0,0,0,0,0,0,0,0,-0.1413574,-0.9938965,-0.2889404,0,0,0,0,0,0
4.740014,-0.4575411,-1,0.7485022,0.7643435,0,0,0,0,0,0,0,0,0,0,0,0,0,0,-0.06122695,-0.02748965,-0.0297388,-0.1202393,-0.9591064,-0.2827148,0,0,0,0,0,0
4.750014,-0.3847782,-1,0.7694606,0.8173026,0,0,0,0,0,0,0,0,0,0,0,0,0,0,0,0,0,-0.09643555,-0.932373,-0.2927246,0,0,0,0,0,0
4.760014,-0.2882255,-1,0.7707045,0.8345971,0,0,0,0,0,0,0,0,0,0,0,1,0,0,0,0,0,-0.0435791,-0.9832764,-0.2713623,0,0,0,0,0,0
4.770014,-0.1690417,-1,0.7633857,0.8513149,0,0,0,0,0,0,0,0,0,0,0,1,0,0,-0.03098581,-0.05447505,-0.02623798,-0.05969238,-0.9360352,-0.3100586,0,0,0,0,0,0
4.780015,-0.09026043,-1,0.7554604,0.8593862,0,0,0,0,0,0,0,0,0,0,0,1,0,0,0,0,0,-0.06164551,-0.9509277,-0.3164063,0,0,0,0,0,0
4.790015,0.003921574,-1,0.7396386,0.8755721,0,0,0,0,0,0,0,0,0,0,0,1,0,0,0,0,0,-0.06774902,-0.9387207,-0.3048096,0,0,0,0,0,0
4.800015,0.05099206,-1,0.7238518,0.8918174,0,0,0,0,0,0,0,0,0,0,0,1,0,0,0,0,0,-0.05639648,-0.9377441,-0.3225098,0,0,0,0,0,0
4.810015,0.113854,-1,0.6996371,0.9075292,0,0,0,0,0,0,0,0,0,0,0,1,0,0,0,0,0,-0.04516602,-0.951416,-0.2919922,0,0,0,0,0,0
4.820015,0.1690417,-1,0.6755022,0.9233196,0,0,0,0,0,0,0,0,0,0,0,1,0,0,0.01960601,-0.01822205,-0.009226355,-0.007568359,-0.9713135,-0.3139648,0,0,0,0,0,0
4.830016,0.2403741,-1,0.6090192,0.9274606,0,0,0,0,0,0,0,0,0,0,0,1,0,0,0,0,0,-0.02722168,-1.00769,-0.2818604,0,0,0,0,0,0
4.840016,0.2802319,-1,0.5131804,0.8500775,0,0,0,0,0,0,0,0,0,0,0,0,0,0,0.0277373,0.005247597,0.01399359,0.00769043,-1.029541,-0.2987061,0,0,0,0,0,0
4.850016,0.3042357,-1,0.4422681,0.7653161,0,0,0,0,0,0,0,0,0,0,0,0,0,0,0,0,0,-0.00402832,-1.019653,-0.307373,0,0,0,0,0,0
4.860016,0.3444016,-1,0.3213622,0.631643,0,0,0,0,0,0,0,0,0,0,0,0,0,0,0,0,0,-0.02416992,-0.9991455,-0.310791,0,0,0,0,0,0
4.870017,0.4009901,-1,0.2056928,0.5055163,0,0,0,0,0,0,0,0,0,0,0,0,0,0,-0.02473867,0.01049519,-0.0004997711,-0.04663086,-0.9309082,-0.326416,0,0,0,0,0,0
4.880017,0.433522,-1,0.1288621,0.4262361,0,0,0,0,0,0,0,0,0,0,0,0,0,0,0,0,0,-0.05895996,-0.9080811,-0.2867432,0,0,0,0,0,0
4.890017,0.4908059,-1,0.03869309,0.3184739,0,0,0,0,0,0,0,0,0,0,0,0,0,0,0,0,0,-0.04907227,-0.9503174,-0.3011475,0,0,0,0,0,0
4.900017,0.5568311,-1,-0.02452411,0.2534157,0,0,0,0,0,0,0,0,0,0,0,0,0,0,-0.01430085,0.01545415,-0.01637678,-0.08862305,-0.918335,-0.2894287,0,0,0,0,0,0
4.910017,0.6046099,-0.9889976,-0.06195885,0.2397538,0,0,0,0,0,0,0,0,0,0,0,0,0,0,0,0,0,-0.09082031,-0.9289551,-0.2856445,0,0,0,0,0,0
4.920018,0.6688248,-0.9491705,-0.113929,0.2417518,0,0,0,0,0,0,0,0,0,0,0,0,0,0,0,0,0,-0.04333496,-1.02832,-0.2197266,0,0,0,0,0,0
4.930018,0.7165664,-0.9087183,-0.15945,0.2522209,0,0,0,0,0,0,0,0,0,0,0,0,0,0,0,0,0,-0.06591797,-0.9833984,-0.2741699,0,0,0,0,0,0
4.940018,0.7719339,-0.851927,-0.2175152,0.2726598,0,0,0,0,0,0,0,0,0,0,0,0,0,0,0,0,0,-0.09008789,-0.9857178,-0.3012695,0,0,0,0,0,0
4.950018,0.810544,-0.7945727,-0.272202,0.3377928,0,0,0,0,0,0,0,0,0,0,0,1,0,0,0,0,0,-0.1064453,-1.041016,-0.1756592,0,0,0,0,0,0
4.960019,0.8414034,-0.7456988,-0.303771,0.3993394,0,0,0,0,0,0,0,0,0,0,0,1,0,0,0,0,0,-0.06384277,-1.07019,-0.1623535,0,0,0,0,0,0
4.970019,0.8875827,-0.664692,-0.3493986,0.5222969,0,0,0,0,0,0,0,0,0,0,0,1,0,0,0,0,0,-0.02490234,-0.916748,-0.3685303,0,0,0,0,0,0
4.980019,0.9274606,-0.6090192,-0.3920885,0.6385442,0,0,0,0,0,0,0,0,0,0,0,1,0,0,0,0,0,-0.09143066,-0.9594727,-0.2961426,0,0,0,0,0,0
4.990019,0.9340156,-0.5763075,-0.4293503,0.7029186,0,0,0,0,0,0,0,0,0,0,0,1,0,0,0,0,0,-0.07849121,-0.9227295,-0.3952637,0,0,0,0,0,0
5.00002,0.9417656,-0.5602909,-0.4570928,0.7490176,0,0,0,0,0,0,0,0,0,0,0,1,0,0,0,0,0,-0.06640625,-0.9069824,-0.3885498,0,0,0,0,0,0
5.01002,0.9417656,-0.5602909,-0.4672323,0.7761463,0,0,0,0,0,0,0,0,0,0,0,1,0,0,0,0,0,-0.06945801,-0.9072266,-0.3326416,0,0,0,0,0,0
5.02002,0.9417656,-0.5602909,-0.4672323,0.7761463,0,0,0,0,0,0,0,0,0,0,0,1,0,0,0,0,0,-0.03417969,-0.9272461,-0.3372803,0,0,0,0,0,0
5.03002,0.9423288,-0.5685782,-0.4672323,0.7761463,0,0,0,0,0,0,0,0,0,0,0,1,0,0,0,0,0,-0.03564453,-0.9785156,-0.2705078,0,0,0,0,0,0
5.04002,0.9345874,-0.5846143,-0.4638073,0.7321256,0,0,0,0,0,0,0,0,0,0,0,1,0,0,0.05743913,0.008535132,0.03690867,-0.003173828,-1.009155,-0.2949219,0,0,0,0,0,0
5.050021,0.919205,-0.6167826,-0.4401423,0.6432849,0,0,0,0,0,0,0,0,0,0,0,1,0,0,0,0,0,0.005249023,-0.9973145,-0.3358154,0,0,0,0,0,0
5.060021,0.8957555,-0.6568874,-0.3939886,0.5024258,0,0,0,0,0,0,0,0,0,0,0,1,0,0,0,0,0,-0.005126953,-0.9666748,-0.3404541,0,0,0,0,0,0
5.070021,0.8482235,-0.7207909,-0.3161083,0.3294181,0,0,0,0,0,0,0,0,0,0,0,1,0,0,0.08419049,0.02837104,0.03067763,-0.03369141,-0.9489746,-0.3453369,0,0,0,0,0,0
5.080021,0.8092968,-0.7774033,-0.2442153,0.2261253,0,0,0,0,0,0,0,0,0,0,0,0,0,0,0,0,0,-0.0390625,-0.9447021,-0.3481445,0,0,0,0,0,0
5.090022,0.7463182,-0.8500843,-0.1349683,0.09071637,0,0,0,0,0,0,0,0,0,0,0,0,0,0,0,0,0,-0.06054688,-0.9752197,-0.2805176,0,0,0,0,0,0
5.100022,0.6749122,-0.914526,-0.02128552,0.01036987,0,0,0,0,0,0,0,0,0,0,0,0,0,0,0.03698608,0.01949266,-0.02374106,-0.09643555,-0.9875488,-0.2720947,0,0,0,0,0,0
5.110022,0.6185194,-0.9457361,0,0,0,0,0,0,0,0,0,0,0,0,0,0,0,0,0,0,0,-0.1116943,-0.9365234,-0.2473145,0,0,0,0,0,0
5.120022,0.5464691,-0.9852398,0,0,0,0,0,0,0,0,0,0,0,0,0,0,0,0,0,0,0,-0.1413574,-0.9385986,-0.1655273,0,0,0,0,0,0
5.130023,0.4825947,-1,0,0,0,0,0,0,0,0,0,0,0,0,0,0,0,0,-0.009745537,0.01824165,-0.0449794,-0.09387207,-1.048584,-0.2109375,0,0,0,0,0,0
5.140023,0.4416777,-1,0,0,0,0,0,0,0,0,0,0,0,0,0,0,0,0,0,0,0,-0.1130371,-0.9995117,-0.2730713,0,0,0,0,0,0
5.150023,0.3686016,-1,0,0,0,0,0,0,0,0,0,0,0,0,0,0,0,0,0,0,0,-0.09008789,-1.02771,-0.2651367,0,0,0,0,0,0
5.160023,0.3122526,-1,0,0,0,0,0,0,0,0,0,0,0,0,0,1,0,0,-0.05522471,-0.01499313,-0.02523844,-0.07092285,-1.014282,-0.2426758,0,0,0,0,0,0
5.170023,0.2802319,-1,0,0,0,0,0,0,0,0,0,0,0,0,0,1,0,0,0,0,0,-0.05993652,-0.9597168,-0.2801514,0,0,0,0,0,0
5.180024,0.2244794,-1,0.1176244,0.1314626,0,0,0,0,0,0,0,0,0,0,0,1,0,0,0,0,0,-0.05639648,-0.9370117,-0.3551025,0,0,0,0,0,0
5.190024,0.1611441,-1,0.2990989,0.3188197,0,0,0,0,0,0,0,0,0,0,0,1,0,0,0,0,0,-0.06884766,-0.9154053,-0.355835,0,0,0,0,0,0
5.200024,0.1217254,-1,0.4181665,0.4396109,0,0,0,0,0,0,0,0,0,0,0,1,0,0,0,0,0,-0.03015137,-0.9466553,-0.342041,0,0,0,0,0,0
5.210024,0.05884144,-1,0.5810989,0.5810989,0,0,0,0,0,0,0,0,0,0,0,1,0,0,0,0,0,-0.01782227,-0.9459229,-0.3398438,0,0,0,0,0,0
5.220025,0,-1,0.6711887,0.6479105,0,0,0,0,0,0,0,0,0,0,0,1,0,0,0.02006909,-0.02629743,-0.01476347,0.01855469,-0.9360352,-0.3178711,0,0,0,0,0,0
5.230025,-0.035298,-1,0.7067867,0.6677377,0,0,0,0,0,0,0,0,0,0,0,1,0,0,0,0,0,0.006347656,-0.9730225,-0.2670898,0,0,0,0,0,0
5.240025,-0.09812176,-1,0.7411131,0.6705309,0,0,0,0,0,0,0,0,0,0,0,1,0,0,0,0,0,0.015625,-1.007568,-0.2967529,0,0,0,0,0,0
5.250025,-0.1927661,-1,0.7576618,0.6634448,0,0,0,0,0,0,0,0,0,0,0,1,0,0,0.0422341,0.021242,0.03323749,0.03820801,-1.017944,-0.3300781,0,0,0,0,0,0
5.260026,-0.2882255,-1,0.7715582,0.6227297,0,0,0,0,0,0,0,0,0,0,0,0,0,0,0,0,0,0.03503418,-1.005005,-0.317627,0,0,0,0,0,0
5.270026,-0.5134615,-0.9831394,0.7619342,0.5066669,0,0,0,0,0,0,0,0,0,0,0,0,0,0,0,0,0,0.03210449,-1.021118,-0.2973633,0,0,0,0,0,0
5.280026,-0.7583603,-0.7821831,0.7524959,0.3934369,0,0,0,0,0,0,0,0,0,0,0,0,0,0,0.009746331,0.0167437,0.0634761,0.03503418,-0.9761963,-0.3063965,0,0,0,0,0,0
5.290026,-0.8927374,-0.6149969,0.7468498,0.3222448,0,0,0,0,0,0,0,0,0,0,0,0,0,0,0,0,0,-0.03295898,-0.8868408,-0.2166748,0,0,0,0,0,0
5.300026,-0.9790874,-0.4479225,0.7762033,0.2233951,0,0,0,0,0,0,0,0,0,0,0,0,0,0,0,0,0,-0.1068115,-0.9006348,-0.2641602,0,0,0,0,0,0
5.310027,-1,-0.3524597,0.8639304,0.1420685,0,0,0,0,0,0,0,0,0,0,0,0,0,0,0.01299405,0.04048146,0.03298489,-0.1530762,-0.9683838,-0.2841797,0,0,0,0,0,0
5.320027,-1,-0.3122526,0.9550873,0.1130512,0,0,0,0,0,0,0,0,0,0,0,0,0,0,0,0,0,-0.1710205,-0.9890137,-0.229248,0,0,0,0,0,0
5.330027,-1,-0.2722459,1,0.09026043,0,0,0,0,0,0,0,0,0,0,0,0,0,0,0,0,0,-0.1538086,-1.11438,-0.1778564,0,0,0,0,0,0
5.340027,-1,-0.2324234,1,0.08240198,0,0,0,0,0,0,0,0,0,0,0,0,0,0,-0.1323857,0.03210222,0.07112389,-0.1270752,-0.9720459,-0.3334961,0,0,0,0,0,0
5.350028,-1,-0.2165419,1,0.08240198,0,0,0,0,0,0,0,0,0,0,0,0,0,0,-0.06347093,-0.01649245,0.01674233,-0.09521484,-0.9908447,-0.3355713,0,0,0,0,0,0
5.360028,-1,-0.2165419,1,0.08240198,0,0,0,0,0,0,0,0,0,0,0,1,0,0,0,0,0,-0.08947754,-0.9837646,-0.265625,0,0,0,0,0,0
5.370028,-1,-0.2086106,1,0.08240198,0,0,0,0,0,0,0,0,0,0,0,1,0,0,0,0,0,-0.04772949,-0.9387207,-0.3343506,0,0,0,0,0,0
5.380028,-1,-0.1848525,1,0.08240198,0,0,0,0,0,0,0,0,0,0,0,1,0,0,-0.036678,-0.04567449,-0.02237589,-0.06665039,-0.8977051,-0.3852539,0,0,0,0,0,0
5.390028,-1,-0.1769445,1,0.09026043,0,0,0,0,0,0,0,0,0,0,0,1,0,0,0,0,0,-0.07275391,-0.894165,-0.3479004,0,0,0,0,0,0
5.400029,-1,-0.1690417,1,0.09026043,0,0,0,0,0,0,0,0,0,0,0,1,0,0,0,0,0,-0.0489502,-0.9005127,-0.3197021,0,0,0,0,0,0
5.410029,-1,-0.1453634,1,0.09026043,0,0,0,0,0,0,0,0,0,0,0,1,0,0,0.04623259,-0.03173805,-0.01749341,-0.03051758,-0.8978271,-0.3117676,0,0,0,0,0,0
5.420029,-1,-0.1296006,1,0.09026043,0,0,0,0,0,0,0,0,0,0,0,1,0,0,0,0,0,-0.01171875,-0.9632568,-0.3218994,0,0,0,0,0,0
5.430029,-1,-0.07454614,1,0.06669273,0,0,0,0,0,0,0,0,0,0,0,0,0,0,0,0,0,0.02990723,-1.031494,-0.2902832,0,0,0,0,0,0
5.44003,-1,0.01960851,1,-0.035298,0,0,0,0,0,0,0,0,0,0,0,0,0,0,0,0,0,0.03076172,-1.02832,-0.2889404,0,0,0,0,0,0
5.45003,-1,0.09026043,1,-0.1217254,0,0,0,0,0,0,0,0,0,0,0,0,0,0,0,0,0,0.01367188,-1.027344,-0.2852783,0,0,0,0,0,0
5.46003,-1,0.2086106,1,-0.2483314,0,0,0,0,0,0,0,0,0,0,0,0,0,0,0,0,0,-0.06335449,-0.9543457,-0.2351074,0,0,0,0,0,0
5.47003,-1,0.3202776,0.9653503,-0.3664391,0,0,0,0,0,0,0,0,0,0,0,0,0,0,0.01149474,0.04298032,0.03948192,-0.0682373,-0.9750977,-0.2080078,0,0,0,0,0,0
5.480031,-1,0.4009901,0.9235923,-0.4205293,0,0,0,0,0,0,0,0,0,0,0,0,0,0,0,0,0,-0.08215332,-0.9516602,-0.24646,0,0,0,0,0,0
5.490031,-0.9926133,0.5222183,0.8571182,-0.4892227,0,0,0,0,0,0,0,0,0,0,0,0,0,0,0,0,0,-0.1417236,-0.913208,-0.2138672,0,0,0,0,0,0
5.500031,-0.9386168,0.6430523,0.7626224,-0.5148669,0,0,0,0,0,0,0,0,0,0,0,0,0,0,0,0.06896842,-0.009495651,-0.09326172,-1.041626,-0.1430664,0,0,0,0,0,0
5.510031,-0.8912154,0.7153703,0.7370915,-0.5209809,0,0,0,0,0,0,0,0,0,0,0,0,0,0,0,0,0,-0.06811523,-1.116699,-0.1635742,0,0,0,0,0,0
5.520031,-0.810544,0.7945727,0.7283723,-0.520266,0,0,0,0,0,0,0,0,0,0,0,0,0,0,0,0,0,-0.1894531,-1.005371,-0.2786865,0,0,0,0,0,0
5.530032,-0.7554604,0.8593862,0.7276536,-0.5120525,0,0,0,0,0,0,0,0,0,0,0,1,0,0,0,0,0,-0.1505127,-1.348022,-0.009521484,0,0,0,0,0,0
5.540032,-0.7153703,0.8912154,0.7571527,-0.4496796,0,0,0,0,0,0,0,0,0,0,0,1,0,0,0,0,0,-0.1602783,-0.878418,-0.003051758,0,0,0,0,0,0
5.550032,-0.6755022,0.9233196,0.8157605,-0.2795799,0,0,0,0,0,0,0,0,0,0,0,1,0,0,0,0,0,-0.3648682,-0.9627686,-0.1046143,0,0,0,0,0,0
5.560032,-0.6514414,0.9391946,0.8439286,-0.08019231,0,0,0,0,0,0,0,0,0,0,0,1,0,0,0,0,0,-0.1142578,-0.9455566,-0.4415283,0,0,0,0,0,0
5.570033,-0.6436275,0.9474515,0.8434417,0.04961422,0,0,0,0,0,0,0,0,0,0,0,1,0,0,0,0,0,0.05407715,-0.8757324,-0.7481689,0,0,0,0,0,0
5.580033,-0.6436275,0.9474515,0.8460979,0.1569684,0,0,0,0,0,0,0,0,0,0,0,1,0,0,0,0,0,-0.01013184,-0.8616943,-0.6307373,0,0,0,0,0,0
5.590033,-0.6436275,0.9474515,0.8744841,0.1810606,0,0,0,0,0,0,0,0,0,0,0,1,0,0,0.01749341,-0.06122695,0.01299511,0.001953125,-0.9207764,-0.3511963,0,0,0,0,0,0
5.600033,-0.6436275,0.9474515,0.9019849,0.1819455,0,0,0,0,0,0,0,0,0,0,0,1,0,0,0,0,0,0.04321289,-0.9104004,-0.3620605,0,0,0,0,0,0
5.610034,-0.6436275,0.9474515,0.9297782,0.190624,0,0,0,0,0,0,0,0,0,0,0,1,0,0,0,0,0,-0.01696777,-0.8970947,-0.2207031,0,0,0,0,0,0
5.620034,-0.6436275,0.9474515,0.9464392,0.1363184,0,0,0,0,0,0,0,0,0,0,0,1,0,0,0,0,0,0.02880859,-0.9110107,-0.3618164,0,0,0,0,0,0
5.630034,-0.6436275,0.9474515,0.9542872,0.06621584,0,0,0,0,0,0,0,0,0,0,0,1,0,0,0,0,0,0.001831055,-0.9298096,-0.3763428,0,0,0,0,0,0
5.640034,-0.6352481,0.9468793,0.9541937,-0.05842002,0,0,0,0,0,0,0,0,0,0,0,0,0,0,0,0,0,-0.04614258,-0.9573975,-0.2886963,0,0,0,0,0,0
5.650034,-0.6274477,0.9551592,0.9570241,-0.1835924,0,0,0,0,0,0,0,0,0,0,0,0,0,0,0.07896384,0.02348924,0.03673318,-0.0324707,-0.9901123,-0.2375488,0,0,0,0,0,0
5.660035,-0.6196507,0.9634567,0.9597648,-0.2546315,0,0,0,0,0,0,0,0,0,0,0,0,0,0,0,0,0,-0.07800293,-0.9747314,-0.2817383,0,0,0,0,0,0
5.670035,-0.5951821,0.9706661,0.9536926,-0.3178975,0,0,0,0,0,0,0,0,0,0,0,0,0,0,0,0,0,-0.1358643,-0.8868408,-0.2485352,0,0,0,0,0,0
5.680035,-0.5790934,0.9784681,0.8925201,-0.3546696,0,0,0,0,0,0,0,0,0,0,0,0,0,0,0.005305154,0.02675643,-0.02652577,-0.1124268,-1.046753,-0.177002,0,0,0,0,0,0
5.690035,-0.5713281,0.9868394,0.8474187,-0.3521238,0,0,0,0,0,0,0,0,0,0,0,0,0,0,0,0,0,-0.09863281,-1.034302,-0.2043457,0,0,0,0,0,0
5.700036,-0.5469962,0.9941757,0.7576216,-0.3464501,0,0,0,0,0,0,0,0,0,0,0,0,0,0,0,0,0,-0.1196289,-1.002441,-0.3092041,0,0,0,0,0,0
5.710036,-0.5309846,1,0.6767019,-0.3327429,0,0,0,0,0,0,0,0,0,0,0,0,0,0,-0.04248054,-0.01624256,-0.01799176,-0.1246338,-1.080933,-0.2674561,0,0,0,0,0,0
5.720036,-0.5227324,1,0.6458557,-0.2841765,0,0,0,0,0,0,0,0,0,0,0,1,0,0,0,0,0,-0.1517334,-1.103516,-0.1766357,0,0,0,0,0,0
5.730036,-0.5067592,1,0.6034625,-0.2059723,0,0,0,0,0,0,0,0,0,0,0,1,0,0,0,0,0,-0.0748291,-0.9243164,-0.2565918,0,0,0,0,0,0
5.740036,-0.4908059,1,0.5691156,-0.1025115,0,0,0,0,0,0,0,0,0,0,0,1,0,0,-0.09770525,-0.02798718,-0.02573821,-0.08190918,-0.9500732,-0.444458,0,0,0,0,0,0
5.750037,-0.4825947,1,0.5575143,-0.03857017,0,0,0,0,0,0,0,0,0,0,0,1,0,0,0,0,0,-0.03063965,-0.9443359,-0.5065918,0,0,0,0,0,0
5.760037,-0.4825947,1,0.538639,0,0,0,0,0,0,0,0,0,0,0,0,1,0,0,0,0,0,-0.0637207,-0.9019775,-0.4024658,0,0,0,0,0,0
5.770037,-0.4825947,1,0.5388187,0.02433375,0,0,0,0,0,0,0,0,0,0,0,1,0,0,0,0,0,-0.01977539,-0.9279785,-0.40979,0,0,0,0,0,0
5.780037,-0.4825947,1,0.5389357,0.03129304,0,0,0,0,0,0,0,0,0,0,0,1,0,0,0,0,0,-0.02954102,-0.9145508,-0.3432617,0,0,0,0,0,0
5.790038,-0.4825947,1,0.5389357,0.03129304,0,0,0,0,0,0,0,0,0,0,0,1,0,0,0,0,0,-0.02734375,-0.9335938,-0.302124,0,0,0,0,0,0
5.800038,-0.4825947,1,0.5572642,0.02453364,0,0,0,0,0,0,0,0,0,0,0,1,0,0,0.05248024,-0.0127452,0.03648626,-0.03417969,-0.9384766,-0.2746582,0,0,0,0,0,0
5.810038,-0.4825947,1,0.5848043,-0.0106328,0,0,0,0,0,0,0,0,0,0,0,1,0,0,0,0,0,-0.008544922,-0.9437256,-0.302124,0,0,0,0,0,0
5.820038,-0.4825947,1,0.6133224,-0.06097358,0,0,0,0,0,0,0,0,0,0,0,1,0,0,0,0,0,-0.02612305,-0.9615479,-0.333252,0,0,0,0,0,0
5.830039,-0.4662001,1,0.6343381,-0.1268676,0,0,0,0,0,0,0,0,0,0,0,0,0,0,0.0477506,0.02214521,0.02606675,-0.04602051,-0.9680176,-0.3391113,0,0,0,0,0,0
5.840039,-0.4580168,1,0.6364713,-0.163664,0,0,0,0,0,0,0,0,0,0,0,0,0,0,0,0,0,-0.1005859,-0.9238281,-0.3338623,0,0,0,0,0,0
5.850039,-0.4416777,1,0.638487,-0.1933703,0,0,0,0,0,0,0,0,0,0,0,0,0,0,0,0,0,-0.1295166,-0.8725586,-0.3731689,0,0,0,0,0,0
5.860039,-0.4416777,1,0.6305471,-0.2077525,0,0,0,0,0,0,0,0,0,0,0,0,0,0,0.008996612,0.008246895,-0.04273391,-0.1430664,-0.8674316,-0.3009033,0,0,0,0,0,0
5.870039,-0.4416777,1,0.5867423,-0.2195784,0,0,0,0,0,0,0,0,0,0,0,0,0,0,0.01383953,0.01868337,-0.0403653,-0.1368408,-1.0271,-0.1514893,0,0,0,0,0,0
5.88004,-0.433522,1,0.5419598,-0.2160755,0,0,0,0,0,0,0,0,0,0,0,0,0,0,0,0,0,-0.1429443,-0.9840088,-0.2478027,0,0,0,0,0,0
5.89004,-0.4172379,1,0.4522993,-0.2006441,0,0,0,0,0,0,0,0,0,0,0,0,0,0,0,0,0,-0.1480713,-1.01123,-0.3099365,0,0,0,0,0,0
5.90004,-0.4009901,1,0.3723777,-0.1241259,0,0,0,0,0,0,0,0,0,0,0,1,0,0,-0.04822791,-0.0004997711,-0.01074508,-0.1623535,-1.138428,-0.152832,0,0,0,0,0,0
5.91004,-0.3847782,1,0.3199038,-0.05680534,0,0,0,0,0,0,0,0,0,0,0,1,0,0,0,0,0,-0.2023926,-1.164063,0.07568359,0,0,0,0,0,0
5.920041,-0.3605264,1,0.2451416,0.03502022,0,0,0,0,0,0,0,0,0,0,0,1,0,0,0,0,0,-0.1154785,-0.9101563,-0.3895264,0,0,0,0,0,0
5.930041,-0.3444016,1,0.1915462,0.077116,0,0,0,0,0,0,0,0,0,0,0,1,0,0,-0.03348466,-0.03023615,-0.02373913,-0.002807617,-0.9865723,-0.5263672,0,0,0,0,0,0
5.940041,-0.336352,1,0.1647104,0.09309717,0,0,0,0,0,0,0,0,0,0,0,1,0,0,0,0,0,-0.0411377,-0.9957275,-0.3537598,0,0,0,0,0,0
5.950041,-0.3283107,1,0.1534966,0.1242591,0,0,0,0,0,0,0,0,0,0,0,1,0,0,0,0,0,-0.001586914,-0.9405518,-0.3677979,0,0,0,0,0,0
5.960042,-0.3202776,1,0.1452869,0.1403619,0,0,0,0,0,0,0,0,0,0,0,1,0,0,0.01174462,-0.03548375,0.009495651,-0.03039551,-0.9554443,-0.3498535,0,0,0,0,0,0
5.970042,-0.3122526,1,0.1312128,0.1359842,0,0,0,0,0,0,0,0,0,0,0,1,0,0,0,0,0,-0.02954102,-0.9758301,-0.3116455,0,0,0,0,0,0
5.980042,-0.3122526,1,0,0,0,0,0,0,0,0,0,0,0,0,0,1,0,0,0,0,0,-0.04589844,-0.916626,-0.359375,0,0,0,0,0,0
5.990042,-0.3122526,1,0,0,0,0,0,0,0,0,0,0,0,0,0,1,0,0,0,0,0,-0.03430176,-0.8973389,-0.3781738,0,0,0,0,0,0
6.000042,-0.3042357,1,0,0,0,0,0,0,0,0,0,0,0,0,0,1,0,0,0,0,0,0.002075195,-0.9404297,-0.3210449,0,0,0,0,0,0
6.010043,-0.3042357,1,0,0,0,0,0,0,0,0,0,0,0,0,0,1,0,0,0.08627404,0.01753162,0.04959604,-0.007568359,-1.004883,-0.3869629,0,0,0,0,0,0
6.020043,-0.3042357,1,0,0,0,0,0,0,0,0,0,0,0,0,0,1,0,0,0,0,0,-0.0135498,-1.016357,-0.3734131,0,0,0,0,0,0
6.030043,-0.3042357,1,0,0,0,0,0,0,0,0,0,0,0,0,0,0,0,0,0,0,0,-0.04492188,-1.022217,-0.338623,0,0,0,0,0,0
6.040043,-0.2962267,1,0,0,0,0,0,0,0,0,0,0,0,0,0,0,0,0,0.08321866,0.00674746,0.114207,-0.1224365,-0.9929199,-0.2980957,0,0,0,0,0,0
6.050044,-0.2962267,1,0,0,0,0,0,0,0,0,0,0,0,0,0,0,0,0,0,0,0,-0.1494141,-0.9505615,-0.2355957,0,0,0,0,0,0
6.060044,-0.2962267,1,0,0,0,0,0,0,0,0,0,0,0,0,0,0,0,0,0,0,0,-0.1668701,-0.9268799,-0.19104,0,0,0,0,0,0
6.070044,-0.2962267,1,0,0,0,0,0,0,0,0,0,0,0,0,0,0,0,0,0,0,0,-0.175293,-0.9206543,-0.1800537,0,0,0,0,0,0
6.080044,-0.2962267,1,0,0,0,0,0,0,0,0,0,0,0,0,0,0,0,0,0,0,0,-0.09423828,-0.6987305,-0.3348389,0,0,0,0,0,0
6.090044,-0.2882255,1,0,0,0,0,0,0,0,0,1,0,0,0,0,0,0,0,0,0,0,-0.1060791,-1.010376,-0.3588867,0,0,0,0,0,0
6.100045,-0.2882255,1,0,0,0,0,0,0,0,0,1,0,0,0,0,0,0,0,0,0,0,-0.09204102,-0.9128418,-0.3693848,0,0,0,0,0,0
6.110045,-0.2882255,1,0,0,0,0,0,0,0,0,1,0,0,0,0,0,0,0,0,0,0,-0.1295166,-1.007568,-0.2572021,0,0,0,0,0,0
6.120045,-0.2882255,1,0,0,0,0,0,0,0,0,1,0,0,0,0,0,0,0,0,0,0,-0.1418457,-1.030029,-0.2191162,0,0,0,0,0,0
6.130045,-0.2882255,1,0,0,0,0,0,0,0,0,1,0,0,0,0,0,0,0,0,0,0,-0.1157227,-1.055908,-0.2283936,0,0,0,0,0,0
6.140046,-0.2882255,1,0,0,0,0,0,0,0,0,1,0,0,0,0,0,0,0,0,0,0,-0.09350586,-1.046387,-0.241333,0,0,0,0,0,0
6.150046,-0.2882255,1,0,0,0,0,0,0,0,0,1,0,0,0,0,0,0,0,0.02373913,-0.009245765,0.0467286,-0.1157227,-1.007202,-0.1958008,0,0,0,0,0,0
6.160046,-0.2882255,1,0,0,0,0,0,0,0,0,1,0,0,0,0,0,0,0,0,0,0,-0.1057129,-0.9959717,-0.2321777,0,0,0,0,0,0
6.170046,-0.2882255,1,0,0,0,0,0,0,0,0,1,0,0,0,0,0,0,0,0,0,0,-0.1149902,-1.001099,-0.2670898,0,0,0,0,0,0
6.180047,-0.2882255,1,0,0,0,0,0,0,0,0,1,0,0,0,0,0,0,0,-0.04023157,0.009995421,-0.04572906,-0.1881104,-0.967041,-0.2318115,0,0,0,0,0,0
6.190047,-0.2882255,1,0,0,0,0,0,0,0,0,0,0,0,0,0,0,0,0,0,0,0,-0.08544922,-0.8449707,-0.286499,0,0,0,0,0,0
6.200047,-0.2882255,1,0,0,0,0,0,0,0,0,0,0,0,0,0,0,0,0,0,0,0,-0.1273193,-0.9503174,-0.28479,0,0,0,0,0,0
6.210047,-0.2882255,1,0,0,0,0,0,0,0,0,0,0,0,0,0,0,0,0,0,0,0,-0.1043701,-0.894165,-0.2718506,0,0,0,0,0,0
6.220047,-0.2882255,1,0,0,0,0,0,0,0,0,0,0,0,0,0,0,0,0,0,0,0,-0.08886719,-0.963623,-0.2797852,0,0,0,0,0,0
6.230048,-0.2882255,1,0,0,0,0,0,0,0,0,0,0,0,0,0,0,0,0,-0.02373913,0.0224897,-0.04922745,-0.1074219,-1.086548,-0.211792,0,0,0,0,0,0
6.240048,-0.2882255,1,0,0,0,0,0,0,0,0,0,0,0,0,0,0,0,0,0,0,0,-0.1271973,-1.042847,-0.2729492,0,0,0,0,0,0
6.250048,-0.2802319,1,0,0,0,0,0,0,0,0,0,0,0,0,0,0,0,0,0,0,0,-0.09106445,-1.07373,-0.2529297,0,0,0,0,0,0
6.260048,-0.2722459,1,0,0,0,0,0,0,0,0,0,0,0,0,0,1,0,0,-0.06758901,0.01614755,0.02029977,-0.111084,-1.048584,-0.1849365,0,0,0,0,0,0
6.270049,-0.2562958,1,0,0,0,0,0,0,0,0,0,0,0,0,0,1,0,0,0,0,0,-0.1535645,-1.043091,-0.02038574,0,0,0,0,0,0
6.280049,-0.2244794,1,0,0,0,0,0,0,0,0,0,0,0,0,0,1,0,0,0,0,0,-0.0135498,-0.7806396,-0.3338623,0,0,0,0,0,0
6.290049,-0.1848525,1,0,0,0,0,0,0,0,0,0,0,0,0,0,1,0,0,-0.1239533,-0.001999247,-0.01474445,-0.02185059,-0.9569092,-0.6154785,0,0,0,0,0,0
6.300049,-0.1690417,1,0,0,0,0,0,0,0,0,0,0,0,0,0,1,0,0,0,0,0,-0.12146,-0.8850098,-0.4626465,0,0,0,0,0,0
6.31005,-0.1690417,1,0,0,0,0,0,0,0,0,0,0,0,0,0,1,0,0,0,0,0,-0.02941895,-0.9040527,-0.3734131,0,0,0,0,0,0
6.32005,-0.1690417,1,0,0,0,0,0,0,0,0,0,0,0,0,0,1,0,0,-0.01724351,-0.04373353,-0.007247271,-0.07788086,-0.9106445,-0.37854,0,0,0,0,0,0
6.33005,-0.1690417,1,0,0,0,0,0,0,0,0,0,0,0,0,0,1,0,0,0,0,0,-0.05041504,-0.9384766,-0.3442383,0,0,0,0,0,0
6.34005,-0.1690417,1,0,0,0,0,0,0,0,0,0,0,0,0,0,1,0,0,0,0,0,-0.03039551,-0.9016113,-0.3404541,0,0,0,0,0,0
6.35005,-0.1690417,1,0,0,0,0,0,0,0,0,0,0,0,0,0,1,0,0,0.001499313,-0.02398901,-0.01674233,-0.0189209,-0.8864746,-0.4089355,0,0,0,0,0,0
6.360051,-0.1690417,1,-0.02010506,-0.03136389,0,0,0,0,0,0,0,0,0,0,0,1,0,0,0,0,0,-0.001708984,-0.8948975,-0.3955078,0,0,0,0,0,0
6.370051,-0.1690417,1,-0.1124899,-0.2332107,0,0,0,0,0,0,0,0,0,0,0,1,0,0,0,0,0,-0.03747559,-0.9597168,-0.2681885,0,0,0,0,0,0
6.380051,-0.1690417,1,-0.2283695,-0.6053606,0,0,0,0,0,0,0,0,0,0,0,0,0,0,0.08146269,0.009995421,0.03373455,-0.02246094,-1.069702,-0.3302002,0,0,0,0,0,0
6.390051,-0.1690417,1,-0.2788141,-0.969959,0,0,0,0,0,0,0,0,0,0,0,0,0,0,0.01522349,0.02122062,0.04705441,-0.07946777,-1.050781,-0.3137207,0,0,0,0,0,0
6.400052,-0.1690417,1,-0.2802319,-1,0,0,0,0,0,0,0,0,0,0,0,0,0,0,0,0,0,-0.1746826,-0.9639893,-0.1149902,0,0,0,0,0,0
6.410052,-0.1690417,1,-0.2244794,-1,0,0,0,0,0,0,0,0,0,0,0,0,0,0,0,0,0,-0.1658936,-0.9232178,-0.2479248,0,0,0,0,0,0
6.420052,-0.1690417,1,-0.1848525,-1,0,0,0,0,0,0,0,0,0,0,0,0,0,0,-0.008745994,0.01874142,-0.01924119,-0.1516113,-0.8798828,-0.3331299,0,0,0,0,0,0
6.430052,-0.1690417,1,-0.1532514,-1,0,0,0,0,0,0,0,0,0,0,0,0,0,0,0,0,0,-0.1623535,-0.9267578,-0.2808838,0,0,0,0,0,0
6.440053,-0.1690417,1,-0.09812176,-1,0,0,0,0,0,0,0,0,0,0,0,0,0,0,0,0,0,-0.06713867,-1.157227,-0.1295166,0,0,0,0,0,0
6.450053,-0.1690417,1,-0.05099206,-1,0,0,0,0,0,0,0,0,0,0,0,0,0,0,-0.02448878,-0.005497482,0.008745994,-0.1654053,-0.965332,-0.3328857,0,0,0,0,0,0
6.460053,-0.1690417,1,-0.02745281,-1,0,0,0,0,0,0,0,0,0,0,0,1,0,0,0,0,0,-0.1149902,-1.032471,-0.3026123,0,0,0,0,0,0
6.470053,-0.1690417,1,0,-1,0,0,0,0,0,0,0,0,0,0,0,1,0,0,0,0,0,-0.1075439,-1.015015,-0.1914063,0,0,0,0,0,0
6.480053,-0.1690417,1,0.01176485,-1,0,0,0,0,0,0,0,0,0,0,0,1,0,0,0,0,0,-0.09008789,-0.9041748,-0.2650146,0,0,0,0,0,0
6.490054,-0.1690417,1,0.04314433,-1,0,0,0,0,0,0,0,0,0,0,0,1,0,0,0,0,0,-0.0793457,-0.9173584,-0.3945313,0,0,0,0,0,0
6.500054,-0.1690417,1,0.07367367,-0.9267372,0,0,0,0,0,0,0,0,0,0,0,1,0,0,0,0,0,-0.05432129,-0.914917,-0.4233398,0,0,0,0,0,0
6.510054,-0.1690417,1,0.0965137,-0.8995077,0,0,0,0,0,0,0,0,0,0,0,1,0,0,0,0,0,-0.04638672,-0.8931885,-0.397583,0,0,0,0,0,0
6.520054,-0.1690417,1,0.119144,-0.8724418,0,0,0,0,0,0,0,0,0,0,0,1,0,0,0,0,0,-0.05175781,-0.9088135,-0.3695068,0,0,0,0,0,0
6.530055,-0.1769445,1,0.134585,-0.8728799,0,0,0,0,0,0,0,0,0,0,0,1,0,0,0.01268736,-0.02053045,-0.01545551,-0.04418945,-0.9307861,-0.3701172,0,0,0,0,0,0
6.540055,-0.1769445,1,0.1500499,-0.8733671,0,0,0,0,0,0,0,0,0,0,0,1,0,0,0,0,0,-0.04907227,-0.9298096,-0.3410645,0,0,0,0,0,0
6.550055,-0.1769445,1,0.1588277,-0.9103538,0,0,0,0,0,0,0,0,0,0,0,1,0,0,0,0,0,-0.04382324,-0.9316406,-0.3240967,0,0,0,0,0,0
6.560055,-0.1769445,1,0.1611441,-1,0,0,0,0,0,0,0,0,0,0,0,1,0,0,0.08696726,0.008246895,0.03123824,0.0111084,-1.002441,-0.3587646,0,0,0,0,0,0
6.570055,-0.1769445,1,0.1611441,-1,0,0,0,0,0,0,0,0,0,0,0,1,0,0,0,0,0,-0.05712891,-1.060791,-0.2209473,0,0,0,0,0,0
6.580056,-0.1769445,1,0.1611441,-1,0,0,0,0,0,0,0,0,0,0,0,0,0,0,0,0,0,-0.1190186,-1.001709,-0.2504883,0,0,0,0,0,0
6.590056,-0.1769445,1,0.1611441,-1,0,0,0,0,0,0,0,0,0,0,0,0,0,0,0.001749341,0.0209921,0.02873918,-0.07678223,-0.9833984,-0.3217773,0,0,0,0,0,0
6.600056,-0.1769445,1,0.1611441,-1,0,0,0,0,0,0,0,0,0,0,0,0,0,0,0,0,0,-0.1102295,-0.8807373,-0.3256836,0,0,0,0,0,0
6.610056,-0.1848525,1,0.1611441,-1,0,0,0,0,0,0,0,0,0,0,0,0,0,0,0,0,0,-0.1108398,-0.9174805,-0.277832,0,0,0,0,0,0
6.620057,-0.1848525,1,0.1611441,-1,0,0,0,0,0,0,0,0,0,0,0,0,0,0,0,0,0,-0.1081543,-0.9504395,-0.2722168,0,0,0,0,0,0
6.630057,-0.1769445,1,0.1611441,-1,0,0,0,0,0,0,0,0,0,0,0,0,0,0,0,0,0,-0.1088867,-0.9937744,-0.2492676,0,0,0,0,0,0
6.640057,-0.1690417,1,0.1611441,-1,0,0,0,0,0,0,0,0,0,0,0,0,0,0,-0.004613177,-0.01430085,-0.01430085,-0.1121826,-0.9855957,-0.3205566,0,0,0,0,0,0
6.650057,-0.1532514,1,0.1611441,-1,0,0,0,0,0,0,0,0,0,0,0,0,0,0,0,0,0,-0.1090088,-0.9888916,-0.2845459,0,0,0,0,0,0
6.660058,-0.1374799,1,0.1532514,-1,0,0,0,0,0,0,0,0,0,0,0,1,0,0,0,0,0,-0.1046143,-1.00415,-0.2094727,0,0,0,0,0,0
6.670058,-0.1059862,1,0.1532514,-1,0,0,0,0,0,0,0,0,0,0,0,1,0,0,-0.01914469,-0.004613177,0.009918332,-0.09069824,-0.9769287,-0.2275391,0,0,0,0,0,0
6.680058,-0.08240198,1,0.1532514,-1,0,0,0,0,0,0,0,0,0,0,0,1,0,0,0,0,0,-0.0847168,-0.9310303,-0.2906494,0,0,0,0,0,0
6.690058,-0.04314433,1,0.1532514,-1,0,0,0,0,0,0,0,0,0,0,0,1,0,0,0,0,0,-0.08105469,-0.9683838,-0.253418,0,0,0,0,0,0
6.700058,-0.02745281,1,0.1611441,-1,0,0,0,0,0,0,0,0,0,0,0,1,0,0,0,0,0,-0.07836914,-0.9892578,-0.3381348,0,0,0,0,0,0
6.710059,0.003921574,1,0.2086106,-1,0,0,0,0,0,0,0,0,0,0,0,1,0,0,0,0,0,-0.07116699,-0.9499512,-0.3664551,0,0,0,0,0,0
6.720059,0.02745281,1,0.2483314,-1,0,0,0,0,0,0,0,0,0,0,0,1,0,0,0,0,0,-0.07556152,-0.9156494,-0.369751,0,0,0,0,0,0
6.730059,0.05884144,1,0.2802319,-1,0,0,0,0,0,0,0,0,0,0,0,1,0,0,0.02448878,-0.02348924,-0.00224897,-0.07055664,-0.9285889,-0.3079834,0,0,0,0,0,0
6.740059,0.07454614,1,0.2962267,-1,0,0,0,0,0,0,0,0,0,0,0,1,0,0,0,0,0,-0.08081055,-0.9215088,-0.2897949,0,0,0,0,0,0
6.75006,0.1059862,1,0.3202776,-1,0,0,0,0,0,0,0,0,0,0,0,1,0,0,0,0,0,-0.06164551,-0.9884033,-0.3218994,0,0,0,0,0,0
6.76006,0.1374799,1,0.336352,-1,0,0,0,0,0,0,0,0,0,0,0,1,0,0,0.07722092,0.005997742,0.04148438,-0.0703125,-1.011108,-0.2983398,0,0,0,0,0,0
6.77006,0.1611441,1,0.3444016,-1,0,0,0,0,0,0,0,0,0,0,0,0,0,0,0,0,0,-0.06604004,-1.038452,-0.2906494,0,0,0,0,0,0
6.78006,0.1848525,1,0.3444016,-1,0,0,0,0,0,0,0,0,0,0,0,0,0,0,0,0,0,-0.07495117,-1.018677,-0.276123,0,0,0,0,0,0
6.790061,0.2006854,1,0.3524597,-1,0,0,0,0,0,0,0,0,0,0,0,0,0,0,0,0,0,-0.06787109,-0.980835,-0.3095703,0,0,0,0,0,0
6.800061,0.2006854,1,0.3524597,-1,0,0,0,0,0,0,0,0,0,0,0,0,0,0,0,0,0,-0.1176758,-0.8896484,-0.2796631,0,0,0,0,0,0
6.810061,0.2006854,1,0.3524597,-1,0,0,0,0,0,0,0,0,0,0,0,0,0,0,0,0,0,-0.1263428,-0.9394531,-0.24646,0,0,0,0,0,0
6.820061,0.2006854,1,0.3524597,-1,0,0,0,0,0,0,0,0,0,0,0,0,0,0,0,0,0,-0.07983398,-1.054443,-0.2269287,0,0,0,0,0,0
6.830061,0.2006854,1,0.336352,-1,0,0,0,0,0,0,0,0,0,0,0,0,0,0,0,0,0,-0.1115723,-0.9848633,-0.2921143,0,0,0,0,0,0
6.840062,0.2006854,1,0.3042357,-1,0,0,0,0,0,0,0,0,0,0,0,0,0,0,-0.02748965,-0.008996612,-0.02074219,-0.1037598,-1.002563,-0.2941895,0,0,0,0,0,0
6.850062,0.2006854,1,0.2882255,-1,0,0,0,0,0,0,0,0,0,0,0,1,0,0,0,0,0,-0.1114502,-1.06543,-0.1943359,0,0,0,0,0,0
6.860062,0.2006854,1,0.2562958,-1,0,0,0,0,0,0,0,0,0,0,0,1,0,0,0,0,0,-0.1590576,-0.9956055,-0.06347656,0,0,0,0,0,0
6.870062,0.2006854,1,0.2324234,-1,0,0,0,0,0,0,0,0,0,0,0,1,0,0,0,0,0,-0.1088867,-0.9506836,-0.3383789,0,0,0,0,0,0
6.880063,0.2006854,1,0.2138556,-0.9215233,0,0,0,0,0,0,0,0,0,0,0,1,0,0,0,0,0,-0.05603027,-0.9769287,-0.4545898,0,0,0,0,0,0
6.890063,0.2006854,1,0.1930783,-0.7836705,0,0,0,0,0,0,0,0,0,0,0,1,0,0,0,0,0,-0.07165527,-0.9029541,-0.4249268,0,0,0,0,0,0
6.900063,0.2006854,1,0.173824,-0.6915975,0,0,0,0,0,0,0,0,0,0,0,1,0,0,0,0,0,-0.06030273,-0.878418,-0.4039307,0,0,0,0,0,0
6.910063,0.2006854,1,0.1480125,-0.6173205,0,0,0,0,0,0,0,0,0,0,0,1,0,0,0.03923203,-0.06322104,0.00674691,-0.05358887,-0.9134521,-0.3609619,0,0,0,0,0,0
6.920063,0.1927661,1,0.1168148,-0.5699148,0,0,0,0,0,0,0,0,0,0,0,1,0,0,0,0,0,-0.02453613,-0.9753418,-0.3056641,0,0,0,0,0,0
6.930064,0.1848525,1,0.08793005,-0.5592352,0,0,0,0,0,0,0,0,0,0,0,1,0,0,0,0,0,-0.02819824,-1.009766,-0.182373,0,0,0,0,0,0
6.940064,0.1769445,1,0.07377905,-0.5586128,0,0,0,0,0,0,0,0,0,0,0,1,0,0,0.0899588,0.04372997,0.06646956,-0.009643555,-1.051636,-0.2225342,0,0,0,0,0,0
6.950064,0.1769445,1,0.06747115,-0.5859336,0,0,0,0,0,0,0,0,0,0,0,1,0,0,0,0,0,-0.001464844,-1.059448,-0.2581787,0,0,0,0,0,0
6.960064,0.1769445,1,0.06245448,-0.6869993,0,0,0,0,0,0,0,0,0,0,0,0,0,0,0,0,0,-0.02746582,-1.034302,-0.2836914,0,0,0,0,0,0
6.970065,0.1769445,1,0.06398725,-0.7791388,0,0,0,0,0,0,0,0,0,0,0,0,0,0,-0.02349116,0.04448325,0.01774332,-0.1300049,-0.9154053,-0.2989502,0,0,0,0,0,0
6.980065,0.1769445,1,0.06464872,-0.8252218,0,0,0,0,0,0,0,0,0,0,0,0,0,0,0,0,0,-0.1586914,-0.8538818,-0.2520752,0,0,0,0,0,0
6.990065,0.1690417,1,0.06525242,-0.8713117,0,0,0,0,0,0,0,0,0,0,0,0,0,0,0,0,0,-0.15625,-0.9188232,-0.2376709,0,0,0,0,0,0
7.000065,0.1532514,1,0.06536689,-0.8805305,0,0,0,0,0,0,0,0,0,0,0,0,0,0,-0.01799322,0.01524426,-0.06897403,-0.1970215,-0.9171143,-0.2663574,0,0,0,0,0,0
7.010066,0.1453634,1,0.06536689,-0.8805305,0,0,0,0,0,0,0,0,0,0,0,0,0,0,0,0,0,-0.194458,-0.9591064,-0.2487793,0,0,0,0,0,0
7.020066,0.1296006,1,0.06536689,-0.8805305,0,0,0,0,0,0,0,0,0,0,0,0,0,0,0,0,0,-0.09362793,-1.1604,-0.09631348,0,0,0,0,0,0
7.030066,0.1296006,1,0.06439152,-0.8067878,0,0,0,0,0,0,0,0,0,0,0,0,0,0,-0.04472952,-0.002748741,-0.01774187,-0.2297363,-0.9633789,-0.2645264,0,0,0,0,0,0
7.040066,0.1296006,1,0.0631049,-0.7238503,0,0,0,0,0,0,0,0,0,0,0,1,0,0,0,0,0,-0.180542,-1.032959,-0.2429199,0,0,0,0,0,0
7.050066,0.1296006,1,0.05967038,-0.5580935,0,0,0,0,0,0,0,0,0,0,0,1,0,0,0,0,0,-0.1883545,-1.25061,0.2706299,0,0,0,0,0,0
7.060067,0.1296006,1,0.0512372,-0.3285208,0,0,0,0,0,0,0,0,0,0,0,1,0,0,-0.09826069,0.04267189,-0.01245558,-0.08032227,-0.9654541,-0.3658447,0,0,0,0,0,0
7.070067,0.1296006,1,0.03840646,-0.1649219,0,0,0,0,0,0,0,0,0,0,0,1,0,0,0,0,0,0.05541992,-0.9786377,-0.612915,0,0,0,0,0,0
7.080067,0.1296006,1,0.007046003,-0.01372116,0,0,0,0,0,0,0,0,0,0,0,1,0,0,0,0,0,-0.05419922,-0.9106445,-0.4119873,0,0,0,0,0,0
7.090067,0.1296006,1,0,0,0,0,0,0,0,0,0,0,0,0,0,1,0,0,-0.04197992,-0.04267189,-0.02883236,0.003417969,-0.8974609,-0.3686523,0,0,0,0,0,0
7.100068,0.1296006,1,0,0,0,0,0,0,0,0,0,0,0,0,0,1,0,0,0,0,0,-0.04577637,-0.8776855,-0.3597412,0,0,0,0,0,0
7.110068,0.1217254,1,0,0,0,0,0,0,0,0,0,0,0,0,0,1,0,0,0,0,0,0.009277344,-0.8623047,-0.4044189,0,0,0,0,0,0
7.120068,0.113854,1,0,0,0,0,0,0,0,0,0,0,0,0,0,1,0,0,0,0,0,-0.01342773,-0.9082031,-0.3937988,0,0,0,0,0,0
7.130068,0.1059862,1,0,0,0,0,0,0,0,0,0,0,0,0,0,1,0,0,0,0,0,-0.0001220703,-0.9967041,-0.2785645,0,0,0,0,0,0
7.140069,0.1059862,1,0,0,0,0,0,0,0,0,0,0,0,0,0,1,0,0,0.04422975,0.04747825,0.02348924,-0.004516602,-0.9904785,-0.2275391,0,0,0,0,0,0
7.150069,0.1059862,1,0,0,0,0,0,0,0,0,0,0,0,0,0,1,0,0,0,0,0,-0.0001220703,-1.003418,-0.3288574,0,0,0,0,0,0
7.160069,0.1059862,1,0.007916301,-0.01816093,0,0,0,0,0,0,0,0,0,0,0,1,0,0,0,0,0,-0.02075195,-0.9904785,-0.3786621,0,0,0,0,0,0
7.170069,0.1059862,1,0.04724622,-0.1335219,0,0,0,0,0,0,0,0,0,0,0,0,0,0,0.02273958,0.02923661,0.03048604,-0.04821777,-0.9649658,-0.338623,0,0,0,0,0,0
7.180069,0.1059862,1,0.06444506,-0.2139576,0,0,0,0,0,0,0,0,0,0,0,0,0,0,0,0,0,-0.07397461,-0.9377441,-0.3410645,0,0,0,0,0,0
7.19007,0.1059862,1,0.08061905,-0.3135186,0,0,0,0,0,0,0,0,0,0,0,0,0,0,0,0,0,-0.1367188,-0.8693848,-0.2584229,0,0,0,0,0,0
7.20007,0.1059862,1,0.09201207,-0.3775668,0,0,0,0,0,0,0,0,0,0,0,0,0,0,0.006459019,0.008304453,-0.03760071,-0.1619873,-0.9281006,-0.1906738,0,0,0,0,0,0
7.21007,0.1059862,1,0.09329816,-0.3957129,0,0,0,0,0,0,0,0,0,0,0,0,0,0,0,0,0,-0.1682129,-0.9615479,-0.2110596,0,0,0,0,0,0
7.22007,0.1059862,1,0.09391275,-0.4047964,0,0,0,0,0,0,0,0,0,0,0,0,0,0,0,0,0,-0.1276855,-1.071899,-0.2000732,0,0,0,0,0,0
7.230071,0.1059862,1,0.09391275,-0.4047964,0,0,0,0,0,0,0,0,0,0,0,0,0,0,-0.03573654,-0.005997742,-0.005997742,-0.1604004,-0.9735107,-0.2927246,0,0,0,0,0,0
7.240071,0.1059862,1,0.08613493,-0.3860121,0,0,0,0,0,0,0,0,0,0,0,1,0,0,0,0,0,-0.1259766,-0.9951172,-0.2456055,0,0,0,0,0,0
7.250071,0.1059862,1,0.07371613,-0.3037105,0,0,0,0,0,0,0,0,0,0,0,1,0,0,0,0,0,-0.1040039,-1.116577,-0.1341553,0,0,0,0,0,0
7.260071,0.1059862,1,0.05953536,-0.1786061,0,0,0,0,0,0,0,0,0,0,0,1,0,0,-0.06672488,0.021242,0.009246519,-0.1311035,-0.852417,-0.3277588,0,0,0,0,0,0
7.270072,0.1059862,1,0.04649042,-0.1097174,0,0,0,0,0,0,0,0,0,0,0,1,0,0,0,0,0,0.005371094,-0.9655762,-0.4768066,0,0,0,0,0,0
7.280072,0.1059862,1,0.02288029,-0.04277619,0,0,0,0,0,0,0,0,0,0,0,1,0,0,0,0,0,-0.04626465,-0.9129639,-0.4237061,0,0,0,0,0,0
7.290072,0.1059862,1,0.009199293,-0.01399892,0,0,0,0,0,0,0,0,0,0,0,1,0,0,-0.01449336,-0.03798261,-0.006497024,-0.01013184,-0.8974609,-0.3813477,0,0,0,0,0,0
7.300072,0.1059862,1,0.006092445,-0.01015407,0,0,0,0,0,0,0,0,0,0,0,1,0,0,0,0,0,-0.04284668,-0.9033203,-0.3464355,0,0,0,0,0,0
7.310072,0.1059862,1,0.006092445,-0.01015407,0,0,0,0,0,0,0,0,0,0,0,1,0,0,0,0,0,-0.03271484,-0.8978271,-0.3636475,0,0,0,0,0,0
7.320073,0.1059862,1,0.006092445,-0.01015407,0,0,0,0,0,0,0,0,0,0,0,1,0,0,0,0,0,-0.03723145,-0.9122314,-0.3685303,0,0,0,0,0,0
7.330073,0.1059862,1,0.006092445,-0.01015407,0,0,0,0,0,0,0,0,0,0,0,1,0,0,0,0,0,-0.05883789,-0.9678955,-0.2524414,0,0,0,0,0,0
7.340073,0.1059862,1,0.01901647,-0.04503901,0,0,0,0,0,0,0,0,0,0,0,1,0,0,0.05628574,0.01614755,0.01153396,-0.04101563,-0.9919434,-0.3117676,0,0,0,0,0,0
7.350073,0.1059862,1,0.03003737,-0.08695029,0,0,0,0,0,0,0,0,0,0,0,1,0,0,0,0,0,-0.02526855,-1.019653,-0.3525391,0,0,0,0,0,0
7.360074,0.1059862,1,0.04538194,-0.1839163,0,0,0,0,0,0,0,0,0,0,0,0,0,0,0,0,0,-0.01660156,-1.032471,-0.345459,0,0,0,0,0,0
7.370074,0.1059862,1,0.05623612,-0.3107786,0,0,0,0,0,0,0,0,0,0,0,0,0,0,0,0,0,-0.07177734,-1.124634,-0.369751,0,0,0,0,0,0
7.380074,0.1059862,1,0.06028377,-0.3839124,0,0,0,0,0,0,0,0,0,0,0,0,0,0,0,0,0,-0.1428223,-0.9060059,-0.2561035,0,0,0,0,0,0
7.390074,0.1059862,1,0.06375896,-0.4664471,0,0,0,0,0,0,0,0,0,0,0,0,0,0,0,0,0,-0.1503906,-0.940918,-0.2008057,0,0,0,0,0,0
7.400074,0.1059862,1,0.06441572,-0.4848131,0,0,0,0,0,0,0,0,0,0,0,0,0,0,-0.01474445,0.007247271,-0.03898532,-0.1478271,-0.9615479,-0.2830811,0,0,0,0,0,0
7.410075,0.1059862,1,0.06473086,-0.4939987,0,0,0,0,0,0,0,0,0,0,0,0,0,0,0,0,0,-0.1711426,-0.9367676,-0.2592773,0,0,0,0,0,0
7.420075,0.1059862,1,0.06473086,-0.4939987,0,0,0,0,0,0,0,0,0,0,0,0,0,0,0,0,0,-0.1447754,-0.9769287,-0.2264404,0,0,0,0,0,0
7.430075,0.1059862,1,0.05079426,-0.4842386,0,0,0,0,0,0,0,0,0,0,0,0,0,0,-0.02973638,0.01099496,-0.009995421,-0.03137207,-1.192993,-0.1015625,0,0,0,0,0,0
7.440075,0.1059862,1,0.04280974,-0.4379766,0,0,0,0,0,0,0,0,0,0,0,0,0,0,-0.04636653,0.01822366,0,-0.1866455,-0.9656982,-0.2562256,0,0,0,0,0,0
7.450076,0.1059862,1,0.03303075,-0.3273047,0,0,0,0,0,0,0,0,0,0,0,1,0,0,-0.06746911,0.01224439,-0.004248055,-0.08007813,-1.073608,-0.251709,0,0,0,0,0,0
7.460076,0.1059862,1,0.02514132,-0.1714181,0,0,0,0,0,0,0,0,0,0,0,1,0,0,-0.1875163,0.02504699,0.02241369,-0.07836914,-0.9210205,-0.258667,0,0,0,0,0,0
7.470076,0.1059862,1,0.008846224,-0.0361891,0,0,0,0,0,0,0,0,0,0,0,1,0,0,0,0,0,-0.04846191,-0.9040527,-0.4396973,0,0,0,0,0,0
7.480076,0.1059862,1,0,0,0,0,0,0,0,0,0,0,0,0,0,1,0,0,0,0,0,0,-0.9238281,-0.4907227,0,0,0,0,0,0
7.490077,0.09812176,1,0,0,0,0,0,0,0,0,0,0,0,0,0,1,0,0,-0.0124953,-0.04173429,-0.01199548,-0.02380371,-0.8782959,-0.388916,0,0,0,0,0,0
7.500077,0.09812176,1,0,0,0,0,0,0,0,0,0,0,0,0,0,1,0,0,0,0,0,-0.01672363,-0.8901367,-0.3696289,0,0,0,0,0,0
7.510077,0.1059862,1,0,0,0,0,0,0,0,0,0,0,0,0,0,1,0,0,0,0,0,-0.0357666,-0.8878174,-0.3759766,0,0,0,0,0,0
7.520077,0.09812176,1,0,0,0,0,0,0,0,0,0,0,0,0,0,1,0,0,0.04023157,-0.01874142,-0.003748283,-0.03796387,-0.9353027,-0.3314209,0,0,0,0,0,0
7.530077,0.09812176,1,0,0,0,0,0,0,0,0,0,0,0,0,0,1,0,0,0,0,0,-0.03613281,-0.9691162,-0.2520752,0,0,0,0,0,0
7.540078,0.09812176,1,0,0,0,0,0,0,0,0,0,0,0,0,0,1,0,0,0,0,0,-0.04187012,-1.020996,-0.3103027,0,0,0,0,0,0
7.550078,0.09812176,1,0,0,0,0,0,0,0,0,0,0,0,0,0,1,0,0,0.05997131,0.02260457,0.05166759,-0.02075195,-1.028442,-0.3448486,0,0,0,0,0,0
7.560078,0.09812176,1,0,0,0,0,0,0,0,0,0,0,0,0,0,0,0,0,0,0,0,-0.009765625,-1.002075,-0.3581543,0,0,0,0,0,0
7.570078,0.09812176,1,0.01399968,-0.08866467,0,0,0,0,0,0,0,0,0,0,0,0,0,0,0,0,0,-0.0793457,-0.9692383,-0.3525391,0,0,0,0,0,0
7.580079,0.1059862,1,0.01933056,-0.1524967,0,0,0,0,0,0,0,0,0,0,0,0,0,0,0,0,0,-0.1304932,-0.9029541,-0.3382568,0,0,0,0,0,0
7.590079,0.1059862,1,0.02861357,-0.2263074,0,0,0,0,0,0,0,0,0,0,0,0,0,0,0,0,0,-0.1569824,-0.928833,-0.2081299,0,0,0,0,0,0
7.600079,0.09812176,1,0.03554653,-0.2542944,0,0,0,0,0,0,0,0,0,0,0,0,0,0,0,0,0,-0.1589355,-0.9580078,-0.2573242,0,0,0,0,0,0
7.610079,0.09812176,1,0.03554653,-0.2542944,0,0,0,0,0,0,0,0,0,0,0,0,0,0,0,0,0,-0.1888428,-0.9310303,-0.2440186,0,0,0,0,0,0
7.62008,0.09812176,1,0.03002134,-0.2538168,0,0,0,0,0,0,0,0,0,0,0,0,0,0,0,0,0,-0.06176758,-1.143799,-0.1453857,0,0,0,0,0,0
7.63008,0.09812176,1,0.01814223,-0.225482,0,0,0,0,0,0,0,0,0,0,0,0,0,0,-0.04447963,0.01374371,0.0007496566,-0.1710205,-1.005493,-0.267334,0,0,0,0,0,0
7.64008,0.09812176,1,0.01100928,-0.1607354,0,0,0,0,0,0,0,0,0,0,0,1,0,0,0,0,0,-0.1254883,-1.044922,-0.2556152,0,0,0,0,0,0
7.65008,0.09812176,1,0.002599627,-0.04072749,0,0,0,0,0,0,0,0,0,0,0,1,0,0,0,0,0,-0.05847168,-0.9904785,-0.2352295,0,0,0,0,0,0
7.66008,0.09812176,1,0,0,0,0,0,0,0,0,0,0,0,0,0,1,0,0,-0.05859253,0.01845434,-0.01199532,-0.09375,-0.8601074,-0.4124756,0,0,0,0,0,0
7.670081,0.09812176,1,0,0,0,0,0,0,0,0,0,0,0,0,0,1,0,0,0,0,0,0.0456543,-0.9244385,-0.5332031,0,0,0,0,0,0
7.680081,0.09812176,1,0,0,0,0,0,0,0,0,0,0,0,0,0,1,0,0,0,0,0,-0.02856445,-0.8856201,-0.3796387,0,0,0,0,0,0
7.690081,0.09812176,1,0,0,0,0,0,0,0,0,0,0,0,0,0,1,0,0,0,0,0,-0.0234375,-0.9023438,-0.3673096,0,0,0,0,0,0
7.700081,0.09812176,1,0,0,0,0,0,0,0,0,0,0,0,0,0,1,0,0,0,0,0,-0.05749512,-0.8710938,-0.3341064,0,0,0,0,0,0
7.710082,0.09812176,1,0,0,0,0,0,0,0,0,0,0,0,0,0,1,0,0,0,0,0,-0.01391602,-0.8671875,-0.4068604,0,0,0,0,0,0
7.720082,0.09812176,1,0,0,0,0,0,0,0,0,0,0,0,0,0,1,0,0,0,0,0,-0.0423584,-0.927124,-0.3568115,0,0,0,0,0,0
7.730082,0.09812176,1,0,0,0,0,0,0,0,0,0,0,0,0,0,1,0,0,0,0,0,-0.04650879,-0.9835205,-0.1965332,0,0,0,0,0,0
7.740082,0.09812176,1,0,0,0,0,0,0,0,0,0,0,0,0,0,1,0,0,0.0674746,0.0297388,0.04948137,-0.01049805,-1.056274,-0.2935791,0,0,0,0,0,0
7.750082,0.09812176,1,0,0,0,0,0,0,0,0,0,0,0,0,0,1,0,0,0,0,0,-0.02502441,-1.029907,-0.3465576,0,0,0,0,0,0
7.760083,0.09812176,1,0,0,0,0,0,0,0,0,0,0,0,0,0,0,0,0,0,0,0,-0.0369873,-1.002563,-0.3569336,0,0,0,0,0,0
7.770083,0.09812176,1,0.002599627,-0.04072749,0,0,0,0,0,0,0,0,0,0,0,0,0,0,0,0,0,-0.09106445,-1.119751,-0.392334,0,0,0,0,0,0
7.780083,0.09812176,1,0.0134,-0.1244286,0,0,0,0,0,0,0,0,0,0,0,0,0,0,0,0,0,-0.1810303,-0.8929443,-0.2487793,0,0,0,0,0,0
7.790083,0.09812176,1,0.01992933,-0.161649,0,0,0,0,0,0,0,0,0,0,0,0,0,0,0,0,0,-0.1798096,-0.9637451,-0.2110596,0,0,0,0,0,0
7.800084,0.09812176,1,0.02049686,-0.1708072,0,0,0,0,0,0,0,0,0,0,0,0,0,0,0,0,0,-0.1973877,-0.949707,-0.2437744,0,0,0,0,0,0
7.810084,0.09812176,1,0.02049686,-0.1708072,0,0,0,0,0,0,0,0,0,0,0,0,0,0,0,0,0,-0.15271,-0.9858398,-0.2321777,0,0,0,0,0,0
7.820084,0.09812176,1,0.01448388,-0.1427697,0,0,0,0,0,0,0,0,0,0,0,0,0,0,0,0,0,-0.100708,-1.129517,-0.1495361,0,0,0,0,0,0
7.830084,0.09812176,1,0.0115039,-0.09696148,0,0,0,0,0,0,0,0,0,0,0,0,0,0,0,0,0,-0.1474609,-0.989502,-0.3259277,0,0,0,0,0,0
7.840085,0.09812176,1,0.001705513,-0.01398521,0,0,0,0,0,0,0,0,0,0,0,1,0,0,0,0,0,-0.06591797,-1.05896,-0.2573242,0,0,0,0,0,0
7.850085,0.09812176,1,0,0,0,0,0,0,0,0,0,0,0,0,0,1,0,0,0,0,0,-0.06799316,-0.9299316,-0.2772217,0,0,0,0,0,0
7.860085,0.09812176,1,0,0,0,0,0,0,0,0,0,0,0,0,0,1,0,0,-0.06572525,0,-0.01374483,-0.01574707,-0.8311768,-0.4200439,0,0,0,0,0,0
7.870085,0.09812176,1,0,0,0,0,0,0,0,0,0,0,0,0,0,1,0,0,0,0,0,-0.003173828,-0.9342041,-0.4257813,0,0,0,0,0,0
7.880085,0.09812176,1,0,0,0,0,0,0,0,0,0,0,0,0,0,1,0,0,0,0,0,-0.03759766,-0.9171143,-0.3776855,0,0,0,0,0,0
7.890086,0.09812176,1,0,0,0,0,0,0,0,0,0,0,0,0,0,1,0,0,-0.003498683,-0.02449078,-0.00549793,-0.02490234,-0.8937988,-0.3664551,0,0,0,0,0,0
7.900086,0.09812176,1,0,0,0,0,0,0,0,0,0,0,0,0,0,1,0,0,0,0,0,-0.04248047,-0.8875732,-0.3565674,0,0,0,0,0,0
7.910086,0.09812176,1,0,0,0,0,0,0,0,0,0,0,0,0,0,1,0,0,0,0,0,-0.03625488,-0.8890381,-0.3914795,0,0,0,0,0,0
7.920086,0.09812176,1,0,0,0,0,0,0,0,0,0,0,0,0,0,1,0,0,0.04722837,-0.006996796,0,-0.0559082,-0.9157715,-0.3084717,0,0,0,0,0,0
7.930087,0.08240198,1,0,0,0,0,0,0,0,0,0,0,0,0,0,1,0,0,0.06273922,0.02306589,0.03275356,-0.03796387,-1.030029,-0.3043213,0,0,0,0,0,0
7.940087,0.07454614,1,0,0,0,0,0,0,0,0,0,0,0,0,0,1,0,0,0,0,0,-0.04199219,-1.010376,-0.3123779,0,0,0,0,0,0
7.950087,0.06669273,1,0,0,0,0,0,0,0,0,0,0,0,0,0,0,0,0,0,0,0,-0.05773926,-0.9775391,-0.3551025,0,0,0,0,0,0
7.960087,0.05884144,1,0,0,0,0,0,0,0,0,0,0,0,0,0,0,0,0,0.006458449,0.001383953,0.01130229,-0.09399414,-0.9614258,-0.3397217,0,0,0,0,0,0
7.970088,0.04314433,1,0,0,0,0,0,0,0,0,0,0,0,0,0,0,0,0,0,0,0,-0.09448242,-0.8956299,-0.4005127,0,0,0,0,0,0
7.980088,0.01176485,1,0.02746559,-0.02746559,0,0,0,0,0,0,0,0,0,0,0,0,0,0,0,0,0,-0.1514893,-0.8930664,-0.2460938,0,0,0,0,0,0
7.990088,-0.01176485,1,0.04250327,-0.0402058,0,0,0,0,0,0,0,0,0,0,0,0,0,0,0,0,0,-0.1409912,-0.956665,-0.2110596,0,0,0,0,0,0
8.000088,-0.035298,1,0.06461862,-0.05560206,0,0,0,0,0,0,0,0,0,0,0,0,0,0,0,0,0,-0.1407471,-0.9708252,-0.2324219,0,0,0,0,0,0
8.010088,-0.05099206,1,0.09245497,-0.06707518,0,0,0,0,0,0,0,0,0,0,0,0,0,0,0,0,0,-0.07458496,-1.08313,-0.1867676,0,0,0,0,0,0
8.020088,-0.05099206,1,0.107327,-0.0722018,0,0,0,0,0,0,0,0,0,0,0,0,0,0,0,0,0,-0.1365967,-1.002319,-0.25354,0,0,0,0,0,0
8.030088,-0.05099206,1,0.1363944,-0.07577466,0,0,0,0,0,0,0,0,0,0,0,1,0,0,0,0,0,-0.09362793,-1.025024,-0.2174072,0,0,0,0,0,0
8.040089,-0.05099206,1,0.1874024,-0.06084495,0,0,0,0,0,0,0,0,0,0,0,1,0,0,0,0,0,-0.05749512,-0.9406738,-0.3083496,0,0,0,0,0,0
8.050089,-0.05099206,1,0.2380296,-0.05081531,0,0,0,0,0,0,0,0,0,0,0,1,0,0,0,0,0,-0.0447998,-0.9476318,-0.2781982,0,0,0,0,0,0
8.060089,-0.05099206,1,0.3368381,-0.03944951,0,0,0,0,0,0,0,0,0,0,0,1,0,0,0,0,0,-0.001342773,-0.9484863,-0.4793701,0,0,0,0,0,0
8.070089,-0.05099206,1,0.4379766,-0.04280974,0,0,0,0,0,0,0,0,0,0,0,1,0,0,-0.01084192,-0.04267566,0.004844264,-0.05505371,-0.8990479,-0.4221191,0,0,0,0,0,0
8.08009,-0.06669273,1,0.5208349,-0.04484009,0,0,0,0,0,0,0,0,0,0,0,1,0,0,0,0,0,-0.06652832,-0.8852539,-0.368042,0,0,0,0,0,0
8.09009,-0.1059862,1,0.6406125,-0.04705063,0,0,0,0,0,0,0,0,0,0,0,1,0,0,0,0,0,-0.05383301,-0.9053955,-0.3325195,0,0,0,0,0,0
8.10009,-0.1769445,1,0.7513545,-0.05607122,0,0,0,0,0,0,0,0,0,0,0,1,0,0,0.04659721,-0.005766981,0.01038057,-0.0390625,-0.9586182,-0.274292,0,0,0,0,0,0
8.11009,-0.2244794,1,0.8166367,-0.09495775,0,0,0,0,0,0,0,0,0,0,0,1,0,0,0,0,0,-0.02307129,-0.994873,-0.2940674,0,0,0,0,0,0
8.12009,-0.2802319,1,0.9195379,-0.1590762,0,0,0,0,0,0,0,0,0,0,0,1,0,0,0,0,0,-0.01940918,-0.9931641,-0.328125,0,0,0,0,0,0
8.130091,-0.3283107,1,1,-0.2483314,0,0,0,0,0,0,0,0,0,0,0,1,0,0,0.06622507,0.0254904,0.04373353,-0.03112793,-0.9769287,-0.3636475,0,0,0,0,0,0
8.140091,-0.3686016,1,1,-0.2882255,0,0,0,0,0,0,0,0,0,0,0,1,0,0,0,0,0,-0.102417,-0.9588623,-0.2982178,0,0,0,0,0,0
8.150091,-0.433522,1,1,-0.336352,0,0,0,0,0,0,0,0,0,0,0,0,0,0,0,0,0,-0.07250977,-0.958374,-0.3261719,0,0,0,0,0,0
8.160091,-0.4990265,1,1,-0.3686016,0,0,0,0,0,0,0,0,0,0,0,0,0,0,-0.003248512,0.006247139,-0.01049519,-0.09460449,-0.9713135,-0.3157959,0,0,0,0,0,0
8.170092,-0.5387272,0.9936524,1,-0.3847782,0,0,0,0,0,0,0,0,0,0,0,0,0,0,0,0,0,-0.135376,-0.9489746,-0.3210449,0,0,0,0,0,0
8.180092,-0.6190876,0.9545932,1,-0.3928797,0,0,0,0,0,0,0,0,0,0,0,0,0,0,0,0,0,-0.1688232,-0.9244385,-0.2020264,0,0,0,0,0,0
8.190092,-0.6749122,0.914526,1,-0.3928797,0,0,0,0,0,0,0,0,0,0,0,0,0,0,0,0,0,-0.1258545,-1.042847,-0.1971436,0,0,0,0,0,0
8.200092,-0.7390295,0.8668616,1,-0.3928797,0,0,0,0,0,0,0,0,0,0,0,0,0,0,0,0,0,-0.1477051,-1.001099,-0.2867432,0,0,0,0,0,0
8.210093,-0.7939504,0.8019298,1,-0.3444016,0,0,0,0,0,0,0,0,0,0,0,0,0,0,-0.05397418,0.00622779,-0.01522349,-0.140625,-1.007813,-0.2164307,0,0,0,0,0,0
8.220093,-0.8259454,0.7700843,1,-0.2722459,0,0,0,0,0,0,0,0,0,0,0,1,0,0,0,0,0,-0.09643555,-1.137207,-0.1414795,0,0,0,0,0,0
8.230093,-0.8581596,0.7384164,1,-0.1296006,0,0,0,0,0,0,0,0,0,0,0,1,0,0,0,0,0,-0.06970215,-0.9377441,-0.3574219,0,0,0,0,0,0
8.240093,-0.8743551,0.7226405,1,0,0,0,0,0,0,0,0,0,0,0,0,1,0,0,-0.1121986,-0.02373913,-0.02898672,-0.02001953,-0.8916016,-0.4580078,0,0,0,0,0,0
8.250093,-0.8900082,0.698437,1,0.06669273,0,0,0,0,0,0,0,0,0,0,0,1,0,0,0,0,0,-0.03613281,-0.8209229,-0.4505615,0,0,0,0,0,0
8.260094,-0.9209678,0.6418867,0.9832366,0.1371047,0,0,0,0,0,0,0,0,0,0,0,1,0,0,0,0,0,-0.06750488,-0.8664551,-0.4591064,0,0,0,0,0,0
8.270094,-0.9601151,0.5696949,0.9565206,0.1678791,0,0,0,0,0,0,0,0,0,0,0,1,0,0,0.0009996236,-0.04448325,-0.03773579,-0.07824707,-0.8835449,-0.3500977,0,0,0,0,0,0
8.280094,-0.9915852,0.5057483,0.9478477,0.1833286,0,0,0,0,0,0,0,0,0,0,0,1,0,0,0,0,0,-0.06408691,-0.8596191,-0.3300781,0,0,0,0,0,0
8.290094,-1,0.4091095,0.9300678,0.1984664,0,0,0,0,0,0,0,0,0,0,0,1,0,0,0,0,0,-0.04907227,-0.9217529,-0.3540039,0,0,0,0,0,0
8.300095,-1,0.2962267,0.8845907,0.2047306,0,0,0,0,0,0,0,0,0,0,0,1,0,0,0,0,0,-0.0267334,-0.9716797,-0.322998,0,0,0,0,0,0
8.310095,-1,0.2244794,0.8571469,0.2037165,0,0,0,0,0,0,0,0,0,0,0,1,0,0,0,0,0,-0.02026367,-0.9810791,-0.3100586,0,0,0,0,0,0
8.320095,-1,0.1374799,0.7840613,0.20075,0,0,0,0,0,0,0,0,0,0,0,0,0,0,0,0,0,-0.02661133,-0.9759521,-0.2919922,0,0,0,0,0,0
8.330095,-1,0.06669273,0.7020562,0.1968729,0,0,0,0,0,0,0,0,0,0,0,0,0,0,0,0,0,-0.04333496,-0.9885254,-0.2844238,0,0,0,0,0,0
8.340096,-0.9815806,0.0195534,0.6566271,0.1944203,0,0,0,0,0,0,0,0,0,0,0,0,0,0,0,0,0,-0.06018066,-0.9599609,-0.2836914,0,0,0,0,0,0
8.350096,-0.9632081,-0.03509666,0.5661494,0.1887164,0,0,0,0,0,0,0,0,0,0,0,0,0,0,0,0,0,-0.07165527,-0.9484863,-0.3398438,0,0,0,0,0,0
8.360096,-0.9272977,-0.1047575,0.4942752,0.1831929,0,0,0,0,0,0,0,0,0,0,0,0,0,0,0.01545415,0.01776074,-0.05766472,-0.09057617,-0.9046631,-0.2872314,0,0,0,0,0,0
8.370096,-0.9101089,-0.1510393,0.4496765,0.1791944,0,0,0,0,0,0,0,0,0,0,0,0,0,0,0,0,0,-0.08435059,-0.9649658,-0.2598877,0,0,0,0,0,0
8.380096,-0.8673628,-0.2274418,0.3790455,0.1717044,0,0,0,0,0,0,0,0,0,0,0,0,0,0,0,0,0,-0.1096191,-1.006592,-0.2490234,0,0,0,0,0,0
8.390097,-0.8253027,-0.2878963,0.3109933,0.1693528,0,0,0,0,0,0,0,0,0,0,0,0,0,0,0,0,0,-0.1057129,-1.079224,-0.2225342,0,0,0,0,0,0
8.400097,-0.7844968,-0.34824,0.236068,0.1894373,0,0,0,0,0,0,0,0,0,0,0,0,0,0,-0.04567046,0.0129169,-0.02767907,-0.0970459,-1.058716,-0.1896973,0,0,0,0,0,0
8.410097,-0.7499276,-0.3616402,0.2137075,0.2195625,0,0,0,0,0,0,0,0,0,0,0,1,0,0,0,0,0,-0.08398438,-1.173096,-0.154541,0,0,0,0,0,0
8.420097,-0.7067826,-0.374179,0.1987898,0.2844224,0,0,0,0,0,0,0,0,0,0,0,1,0,0,0,0,0,-0.08129883,-1.067261,-0.02868652,0,0,0,0,0,0
8.430098,-0.6545401,-0.3777631,0.1823632,0.3551283,0,0,0,0,0,0,0,0,0,0,0,1,0,0,0,0,0,0.01757813,-0.9844971,-0.4881592,0,0,0,0,0,0
8.440098,-0.6226945,-0.4064293,0.1737185,0.3966027,0,0,0,0,0,0,0,0,0,0,0,1,0,0,0,0,0,0.01000977,-0.9844971,-0.5397949,0,0,0,0,0,0
8.450098,-0.5871353,-0.4749438,0.161662,0.4124031,0,0,0,0,0,0,0,0,0,0,0,1,0,0,0,0,0,-0.0760498,-0.9133301,-0.3911133,0,0,0,0,0,0
8.460098,-0.5375525,-0.5601072,0.1417913,0.4187789,0,0,0,0,0,0,0,0,0,0,0,1,0,0,0,0,0,-0.03503418,-0.9302979,-0.3504639,0,0,0,0,0,0
8.470098,-0.4954658,-0.6316243,0.1349424,0.4179924,0,0,0,0,0,0,0,0,0,0,0,1,0,0,0,0,0,-0.0390625,-0.9080811,-0.3822021,0,0,0,0,0,0
8.480099,-0.4261461,-0.7639918,0.1281266,0.4172329,0,0,0,0,0,0,0,0,0,0,0,1,0,0,0,0,0,-0.04064941,-0.8968506,-0.361084,0,0,0,0,0,0
8.490099,-0.3471665,-0.9010727,0.1145906,0.4158003,0,0,0,0,0,0,0,0,0,0,0,1,0,0,0,0,0,-0.01977539,-0.96875,-0.3018799,0,0,0,0,0,0
8.500099,-0.2871468,-0.9794459,0.1065206,0.3970312,0,0,0,0,0,0,0,0,0,0,0,1,0,0,0,0,0,-0.01831055,-1.002319,-0.246582,0,0,0,0,0,0
8.510099,-0.1848525,-1,0.08061905,0.3135186,0,0,0,0,0,0,0,0,0,0,0,1,0,0,0,0,0,0.03063965,-1.020508,-0.2091064,0,0,0,0,0,0
8.5201,-0.09026043,-1,0.05898745,0.2128678,0,0,0,0,0,0,0,0,0,0,0,1,0,0,0.01983666,0.0286017,0.002306589,0.02893066,-0.9866943,-0.3319092,0,0,0,0,0,0
8.5301,0,-1,0.04724622,0.1335219,0,0,0,0,0,0,0,0,0,0,0,1,0,0,0,0,0,-0.008789063,-0.9637451,-0.3553467,0,0,0,0,0,0
8.5401,0.1217254,-1,0.00475487,0.01034884,0,0,0,0,0,0,0,0,0,0,0,0,0,0,0,0,0,-0.02612305,-0.9445801,-0.3406982,0,0,0,0,0,0
8.5501,0.2403741,-1,0,0,0,0,0,0,0,0,0,0,0,0,0,0,0,0,0.00207593,0.03183093,-0.01937535,-0.04821777,-0.9490967,-0.3305664,0,0,0,0,0,0
8.560101,0.3042357,-1,0,0,0,0,0,0,0,0,0,0,0,0,0,0,0,0,0,0,0,-0.0645752,-0.9580078,-0.3006592,0,0,0,0,0,0
8.570101,0.3928797,-1,0,0,0,0,0,0,0,0,0,0,0,0,0,0,0,0,0,0,0,-0.06359863,-0.9351807,-0.317749,0,0,0,0,0,0
8.580101,0.4580168,-1,0,0,0,0,0,0,0,0,0,0,0,0,0,0,0,0,0,0,0,-0.04699707,-0.9128418,-0.3413086,0,0,0,0,0,0
8.590101,0.5154955,-1,0,0,0,0,0,0,0,0,0,0,0,0,0,0,0,0,0.007746452,0.006996796,-0.05047688,-0.02905273,-0.9522705,-0.3018799,0,0,0,0,0,0
8.600101,0.5568311,-1,0,0,0,0,0,0,0,0,0,0,0,0,0,0,0,0,0,0,0,-0.03051758,-0.9550781,-0.3265381,0,0,0,0,0,0
8.610102,0.6046099,-0.9889976,0,0,0,0,0,0,0,0,0,0,0,0,0,0,0,0,0,0,0,-0.03564453,-0.9393311,-0.3201904,0,0,0,0,0,0
8.620102,0.6766679,-0.9409287,0,0,0,0,0,0,0,0,0,0,0,0,0,0,0,0,0.0154929,-0.008995879,-0.01274416,-0.01879883,-0.9628906,-0.3115234,0,0,0,0,0,0
8.630102,0.7244509,-0.9005606,0,0,0,0,0,0,0,0,0,0,0,0,0,0,0,0,0,0,0,-0.02258301,-0.9598389,-0.3026123,0,0,0,0,0,0
8.640102,0.7951917,-0.8191673,0,0,0,0,0,0,0,0,0,0,0,0,0,0,0,0,0,0,0,-0.02661133,-0.9669189,-0.2844238,0,0,0,0,0,0
8.650103,0.8731322,-0.7056823,0,0,0,0,0,0,0,0,0,0,0,0,0,0,0,0,0.03098581,0.01024531,0.03298489,-0.02709961,-0.9580078,-0.2879639,0,0,0,0,0,0
8.660103,0.9197923,-0.6251402,0,0,0,0,0,0,0,0,0,0,0,0,0,0,0,0,0,0,0,-0.01306152,-0.9404297,-0.2998047,0,0,0,0,0,0
8.670103,0.9736622,-0.5047147,0,0,0,0,0,0,0,0,0,0,0,0,0,0,0,0,0,0,0,-0.006713867,-0.9473877,-0.2958984,0,0,0,0,0,0
8.680103,1,-0.3686016,0,0,0,0,0,0,0,0,0,0,0,0,0,0,0,0,0.06172173,0.03548375,0.03573363,-0.01525879,-0.9289551,-0.2810059,0,0,0,0,0,0
8.690104,1,-0.2722459,0,0,0,0,0,0,0,0,0,0,0,0,0,0,0,0,0,0,0,-0.01403809,-0.9475098,-0.2613525,0,0,0,0,0,0
8.700104,1,-0.1296006,0,0,0,0,0,0,0,0,0,0,0,0,0,0,0,0,0,0,0,-0.05383301,-0.9511719,-0.2443848,0,0,0,0,0,0
8.710104,1,0.04314433,0,0,0,0,0,0,0,0,0,0,0,0,0,0,0,0,0.0544403,0.05697777,0.0002306792,-0.02563477,-0.9412842,-0.2657471,0,0,0,0,0,0
8.720104,1,0.1611441,0,0,0,0,0,0,0,0,0,0,0,0,0,0,0,0,0,0,0,-0.01464844,-0.9486084,-0.2661133,0,0,0,0,0,0
8.730104,1,0.3686016,0,0,0,0,0,0,0,0,0,0,0,0,0,0,0,0,0,0,0,-0.05053711,-0.9594727,-0.2790527,0,0,0,0,0,0
8.740105,0.9612237,0.5863066,0,0,0,0,0,0,0,0,0,0,0,0,0,0,0,0,0.04348363,0.04948137,-0.03548664,-0.08850098,-0.9161377,-0.2674561,0,0,0,0,0,0
8.750105,0.8912154,0.7153703,0,0,0,0,0,0,0,0,0,0,0,0,0,0,0,0,0,0,0,-0.1217041,-0.9068604,-0.2774658,0,0,0,0,0,0
8.760105,0.8117793,0.8117793,0,0,0,0,0,0,0,0,0,0,0,0,0,0,0,0,0,0,0,-0.1173096,-0.9237061,-0.2999268,0,0,0,0,0,0
8.770105,0.7560699,0.8680802,0,0,0,0,0,0,0,0,0,0,0,0,0,0,0,0,0.02848927,0.02773956,-0.07547158,-0.08813477,-0.9550781,-0.3017578,0,0,0,0,0,0
8.780106,0.7402433,0.8842907,0,0,0,0,0,0,0,0,0,0,0,0,0,0,0,0,0,0,0,-0.06066895,-0.9526367,-0.3192139,0,0,0,0,0,0
8.790106,0.7238518,0.8918174,0,0,0,0,0,0,0,0,0,0,0,0,0,0,0,0,0,0,0,-0.05078125,-0.9375,-0.2796631,0,0,0,0,0,0
8.800106,0.7080969,0.9081243,0,0,0,0,0,0,0,0,0,0,0,0,0,0,0,0,0,0,0,-0.02856445,-0.9382324,-0.2919922,0,0,0,0,0,0
8.810106,0.691781,0.91571,0,0,0,0,0,0,0,0,0,0,0,0,0,0,0,0,0.02798718,-0.01099496,-0.07546544,-0.005737305,-0.9633789,-0.3012695,0,0,0,0,0,0
8.820107,0.6839312,0.923907,0.05047693,-0.02579932,0,0,0,0,0,0,0,0,0,0,0,0,0,0,0,0,0,-0.0078125,-0.9765625,-0.3026123,0,0,0,0,0,0
8.830107,0.6682492,0.9403506,0.1710709,-0.08914962,0,0,0,0,0,0,0,0,0,0,0,0,0,0,0,0,0,-0.004394531,-0.9981689,-0.288208,0,0,0,0,0,0
8.840107,0.6358177,0.9557259,0.2545635,-0.1344324,0,0,0,0,0,0,0,0,0,0,0,0,0,0,0,0,0,-0.003051758,-1.002563,-0.2818604,0,0,0,0,0,0
8.850107,0.5879496,0.9879154,0.393057,-0.208089,0,0,0,0,0,0,0,0,0,0,0,0,0,0,0,0,0,0.0003662109,-1.010132,-0.274292,0,0,0,0,0,0
8.860107,0.5154955,1,0.5763218,-0.2935979,0,0,0,0,0,0,0,0,0,0,0,0,0,0,0,0,0,-0.005249023,-1.022339,-0.272583,0,0,0,0,0,0
8.870108,0.4743927,1,0.7142994,-0.3590394,0,0,0,0,0,0,0,0,0,0,0,0,0,0,0.09895469,0.00449794,0,-0.01306152,-1.046143,-0.2574463,0,0,0,0,0,0
8.880108,0.4172379,1,0.9710904,-0.4637452,0,0,0,0,0,0,0,0,0,0,0,0,0,0,0,0,0,-0.09020996,-1.109253,-0.1914063,0,0,0,0,0,0
8.890108,0.3686016,1,0.9710904,-0.4637452,0,0,0,0,0,0,0,0,0,0,0,0,0,0,0.01099496,0.01649245,0.002748741,-0.02783203,-1.103638,-0.2072754,0,0,0,0,0,0
8.900108,0.3444016,1,0.9710904,-0.4637452,0,0,0,0,0,0,0,0,0,0,0,0,0,0,0,0,0,0.02392578,-1.068237,-0.2919922,0,0,0,0,0,0
8.910109,0.3202776,1,0.9710904,-0.4637452,0,0,0,0,0,0,0,0,0,0,0,0,0,0,0,0,0,0.01782227,-1.081909,-0.3210449,0,0,0,0,0,0
8.920109,0.2962267,1,0.9710904,-0.4637452,0,0,0,0,0,0,0,0,0,0,0,0,0,0,-0.03828938,-0.01729942,0.001845271,0.01403809,-1.067627,-0.3015137,0,0,0,0,0,0
8.930109,0.2802319,1,0.9710904,-0.4637452,0,0,0,0,0,0,0,0,0,0,0,0,0,0,0,0,0,-0.01525879,-1.015503,-0.2583008,0,0,0,0,0,0
8.940109,0.2562958,1,0.9800786,-0.4642477,0,0,0,0,0,0,0,0,0,0,0,0,0,0,0,0,0,-0.01611328,-1.025879,-0.1872559,0,0,0,0,0,0
8.950109,0.2483314,1,0.9947569,-0.408207,0,0,0,0,0,0,0,0,0,0,0,0,0,0,-0.03098581,0.02348924,0.03723295,0.01586914,-1.094604,-0.105957,0,0,0,0,0,0
8.96011,0.2483314,1,1,-0.3686016,0,0,0,0,0,0,0,0,0,0,0,0,0,0,0,0,0,-0.03955078,-0.9317627,-0.2956543,0,0,0,0,0,0
8.97011,0.2483314,1,1,-0.2722459,0,0,0,0,0,0,0,0,0,0,0,0,0,0,0,0,0,0.03735352,-1.009155,-0.3339844,0,0,0,0,0,0
8.98011,0.2483314,1,1,-0.1927661,0,0,0,0,0,0,0,0,0,0,0,0,0,0,0,0,0,0.0003662109,-1.017944,-0.2584229,0,0,0,0,0,0
8.99011,0.2483314,1,0.9358469,-0.0660141,0,0,0,0,0,0,0,0,0,0,0,1,0,0,0,0,0,-0.02648926,-1.058472,-0.190918,0,0,0,0,0,0
9.000111,0.2483314,1,0.7327936,0.04835694,0,0,0,0,0,0,0,0,0,0,0,1,0,0,0,0,0,-0.01403809,-0.9628906,-0.2905273,0,0,0,0,0,0
9.010111,0.2483314,1,0.5695037,0.109656,0,0,0,0,0,0,0,0,0,0,0,1,0,0,0,0,0,-0.01928711,-0.9680176,-0.3343506,0,0,0,0,0,0
9.020111,0.2483314,1,0.3506705,0.1548005,0,0,0,0,0,0,0,0,0,0,0,1,0,0,0,0,0,-0.01062012,-0.9403076,-0.3157959,0,0,0,0,0,0
9.030111,0.2483314,1,0.1731668,0.1678386,0,0,0,0,0,0,0,0,0,0,0,1,0,0,-0.07820026,-0.03690867,-0.04313702,0.01611328,-0.9368896,-0.3168945,0,0,0,0,0,0
9.040112,0.2483314,1,0.1174929,0.1724896,0,0,0,0,0,0,0,0,0,0,0,1,0,0,0,0,0,0.02111816,-0.9284668,-0.3503418,0,0,0,0,0,0
9.050112,0.2483314,1,0.077116,0.1915462,0,0,0,0,0,0,0,0,0,0,0,1,0,0,0,0,0,0.009277344,-0.9047852,-0.338623,0,0,0,0,0,0
9.060112,0.2483314,1,0.05259838,0.2028794,0,0,0,0,0,0,0,0,0,0,0,1,0,0,-0.008073773,-0.04152226,-0.02099181,0.04016113,-0.911499,-0.3432617,0,0,0,0,0,0
9.070112,0.2483314,1,0.04218405,0.2009946,0,0,0,0,0,0,0,0,0,0,0,1,0,0,0,0,0,0.0378418,-0.9436035,-0.3082275,0,0,0,0,0,0
9.080112,0.2324234,1,0.03707075,0.2001821,0,0,0,0,0,0,0,0,0,0,0,1,0,0,0,0,0,0.04846191,-1.005859,-0.2928467,0,0,0,0,0,0
9.090113,0.2165419,1,0.025793,0.180551,0,0,0,0,0,0,0,0,0,0,0,1,0,0,0.03048852,-0.02324125,0.0379857,0.05053711,-1.013428,-0.2974854,0,0,0,0,0,0
9.100113,0.2165419,1,0.0134,0.1244286,0,0,0,0,0,0,0,0,0,0,0,1,0,0,0,0,0,0.05908203,-0.9779053,-0.3048096,0,0,0,0,0,0
9.110113,0.2086106,1,0,0,0,0,0,0,0,0,0,0,0,0,0,1,0,0,0,0,0,-0.0009765625,-1.000488,-0.1928711,0,0,0,0,0,0
9.120113,0.2086106,1,0,0,0,0,0,0,0,0,0,0,0,0,0,0,0,0,-0.04723221,-0.01549417,0.009746331,-0.03735352,-0.9053955,-0.2635498,0,0,0,0,0,0
9.130114,0.2086106,1,0,0,0,0,0,0,0,0,0,0,0,0,0,0,0,0,0,0,0,-0.04577637,-0.9331055,-0.2895508,0,0,0,0,0,0
9.140114,0.2086106,1,0,0,0,0,0,0,0,0,0,0,0,0,0,0,0,0,0,0,0,-0.05493164,-0.9621582,-0.2064209,0,0,0,0,0,0
9.150114,0.2086106,1,0,0,0,0,0,0,0,0,0,0,0,0,0,0,0,0,0,0,0,-0.1057129,-0.9729004,-0.1566162,0,0,0,0,0,0
9.160114,0.2086106,1,0,0,0,0,0,0,0,0,0,0,0,0,0,0,0,0,0,0,0,-0.1400146,-0.9749756,-0.1971436,0,0,0,0,0,0
9.170115,0.2086106,1,0,0,0,0,0,0,0,0,0,0,0,0,0,1,0,0,0,0,0,-0.1387939,-1.107544,-0.2020264,0,0,0,0,0,0
9.180115,0.2086106,1,0,0,0,0,0,0,0,0,0,0,0,0,0,1,0,0,-0.1261922,0.003748283,0.002748741,-0.1175537,-1.092651,-0.2188721,0,0,0,0,0,0
9.190115,0.2086106,1,0,0,0,0,0,0,0,0,0,0,0,0,0,1,0,0,0,0,0,-0.05236816,-1.002197,-0.288208,0,0,0,0,0,0
9.200115,0.2086106,1,0,0,0,0,0,0,0,0,0,0,0,0,0,1,0,0,0,0,0,0.01367188,-0.7967529,-0.4421387,0,0,0,0,0,0
9.210115,0.2006854,1,0,0,0,0,0,0,0,0,0,0,0,0,0,1,0,0,-0.1483268,-0.05859253,-0.1070352,0.1951904,-0.8562012,-0.6466064,0,0,0,0,0,0
9.220116,0.2006854,1,0,0,0,0,0,0,0,0,0,0,0,0,0,1,0,0,0,0,0,0.1507568,-0.9074707,-0.5231934,0,0,0,0,0,0
9.230116,0.1848525,1,0,0,0,0,0,0,0,0,0,0,0,0,0,1,0,0,-0.04521313,-0.06412882,-0.06205272,0.09069824,-0.9056396,-0.4401855,0,0,0,0,0,0
9.240116,0.1532514,1,0,0,0,0,0,0,0,0,0,0,0,0,0,1,0,0,0,0,0,0.07897949,-0.9538574,-0.3438721,0,0,0,0,0,0
9.250116,0.1296006,1,0,0,0,0,0,0,0,0,0,0,0,0,0,1,0,0,0.0294865,-0.004747826,0.02298947,0.08190918,-0.9642334,-0.2747803,0,0,0,0,0,0
9.260117,0.1296006,1,0,0,0,0,0,0,0,0,0,0,0,0,0,1,0,0,0,0,0,0.1013184,-0.9620361,-0.333252,0,0,0,0,0,0
9.270117,0.1296006,1,0,0,0,0,0,0,0,0,0,0,0,0,0,1,0,0,0,0,0,0.046875,-0.9239502,-0.3518066,0,0,0,0,0,0
9.280117,0.1296006,1,0,0,0,0,0,0,0,0,0,0,0,0,0,0,0,0,0,0,0,0.01708984,-0.8880615,-0.3057861,0,0,0,0,0,0
9.290117,0.1296006,1,0,0,0,0,0,0,0,0,0,0,0,0,0,0,0,0,0,0,0,0.05334473,-0.9211426,-0.3607178,0,0,0,0,0,0
9.300117,0.1296006,1,0,0,0,0,0,0,0,0,0,0,0,0,0,0,0,0,0,0,0,-0.04003906,-0.8344727,-0.3503418,0,0,0,0,0,0
9.310118,0.1296006,1,0,0,0,0,0,0,0,0,0,0,0,0,0,0,0,0,0,0,0,-0.0958252,-0.8557129,-0.230835,0,0,0,0,0,0
9.320118,0.113854,1,0,0,0,0,0,0,0,0,0,0,0,0,0,0,0,0,0,0,0,-0.02636719,-1.061646,-0.1593018,0,0,0,0,0,0
9.330118,0.113854,1,0,0,0,0,0,0,0,0,0,0,0,0,0,0,0,0,-0.005997253,-0.004747826,0.006996796,-0.1065674,-1.023071,-0.2976074,0,0,0,0,0,0
9.340118,0.113854,1,0,0,0,0,0,0,0,0,0,0,0,0,0,0,0,0,0,0,0,-0.05651855,-1.056763,-0.2884521,0,0,0,0,0,0
9.350119,0.113854,1,0,0,0,0,0,0,0,0,0,0,0,0,0,1,0,0,-0.04221058,-0.01153294,0.01937535,-0.04187012,-1.120117,-0.1674805,0,0,0,0,0,0
9.360119,0.113854,1,0,0,0,0,0,0,0,0,0,0,0,0,0,1,0,0,0,0,0,-0.03796387,-0.9619141,-0.06762695,0,0,0,0,0,0
9.370119,0.113854,1,0,0,0,0,0,0,0,0,0,0,0,0,0,1,0,0,0,0,0,-0.03198242,-0.8446045,-0.3509521,0,0,0,0,0,0
9.380119,0.113854,1,0,0,0,0,0,0,0,0,0,0,0,0,0,1,0,0,0,0,0,0.08239746,-0.9030762,-0.5308838,0,0,0,0,0,0
9.39012,0.113854,1,0,0,0,0,0,0,0,0,0,0,0,0,0,1,0,0,0,0,0,0.02282715,-0.8522949,-0.444458,0,0,0,0,0,0
9.40012,0.1059862,1,0,0,0,0,0,0,0,0,0,0,0,0,0,1,0,0,0,0,0,0.06054688,-0.8580322,-0.4686279,0,0,0,0,0,0
9.41012,0.07454614,1,0,0,0,0,0,0,0,0,0,0,0,0,0,1,0,0,0,0,0,0.04260254,-0.8895264,-0.3874512,0,0,0,0,0,0
9.42012,0.05099206,1,0,0,0,0,0,0,0,0,0,0,0,0,0,1,0,0,0.04705441,-0.01453151,0.01914469,0.07312012,-0.9337158,-0.3669434,0,0,0,0,0,0
9.43012,0.035298,1,0,0,0,0,0,0,0,0,0,0,0,0,0,1,0,0,0,0,0,0.05773926,-0.973877,-0.2962646,0,0,0,0,0,0
9.440121,0.01960851,1,0,0,0,0,0,0,0,0,0,0,0,0,0,1,0,0,0,0,0,0.046875,-0.958252,-0.3217773,0,0,0,0,0,0
9.450121,-0.01176485,1,0,0,0,0,0,0,0,0,0,0,0,0,0,1,0,0,0.1092,0.01524302,0.06596979,0.05834961,-0.9696045,-0.3939209,0,0,0,0,0,0
9.460121,-0.035298,1,0,0,0,0,0,0,0,0,0,0,0,0,0,0,0,0,0,0,0,0.03039551,-0.9519043,-0.3811035,0,0,0,0,0,0
9.470121,-0.09026043,1,0,0,0,0,0,0,0,0,0,0,0,0,0,0,0,0,0,0,0,0.02661133,-0.9841309,-0.3443604,0,0,0,0,0,0
9.480122,-0.1217254,1,0,0,0,0,0,0,0,0,0,0,0,0,0,0,0,0,0,0,0,0.01843262,-1.008423,-0.4295654,0,0,0,0,0,0
9.490122,-0.1848525,1,0,0,0,0,0,0,0,0,0,0,0,0,0,0,0,0,0,0,0,-0.07714844,-0.9200439,-0.2966309,0,0,0,0,0,0
9.500122,-0.2562958,1,0,0,0,0,0,0,0,0,0,0,0,0,0,0,0,0,0,0,0,-0.1072998,-0.9675293,-0.2148438,0,0,0,0,0,0
9.510122,-0.2882255,1,0,0,0,0,0,0,0,0,0,0,0,0,0,0,0,0,0,0,0,-0.05969238,-1.06897,-0.1539307,0,0,0,0,0,0
9.520123,-0.3202776,1,0,0,0,0,0,0,0,0,0,0,0,0,0,0,0,0,0,0,0,-0.1098633,-1.050171,-0.2746582,0,0,0,0,0,0
9.530123,-0.3444016,1,0,0,0,0,0,0,0,0,0,0,0,0,0,1,0,0,-0.04244498,-0.004382906,0.03483257,-0.08630371,-1.127686,-0.1965332,0,0,0,0,0,0
9.540123,-0.3605264,1,0,0,0,0,0,0,0,0,0,0,0,0,0,1,0,0,0,0,0,-0.02319336,-1.086182,-0.178833,0,0,0,0,0,0
9.550123,-0.3686016,1,0,0,0,0,0,0,0,0,0,0,0,0,0,1,0,0,0,0,0,0.008056641,-0.9104004,-0.3001709,0,0,0,0,0,0
9.560123,-0.3847782,1,0,0,0,0,0,0,0,0,0,0,0,0,0,1,0,0,0,0,0,0.03222656,-0.8756104,-0.5272217,0,0,0,0,0,0
