Timestamp, Left Stick X, Left Stick Y, Right Stick X, Right Stick Y, D-Pad Up, D-Pad Right,D-Pad Down, D-Pad Left, Button North, Button East, Button South, Button West, L1, R1, L2, R2, L3, R3,Gyroscope X, Gyroscope Y, Gyroscope Z, Accelerometer X, Accelerometer Y, Accelerometer Z,Touch 1, Touch 2, Touch 1 Pos X, Touch 1 Pos Y, Touch 2 Pos X, Touch 2 Pos Y
0,0.1009096,0.1747459,-0.3343823,-0.2069986,0,0,0,0,0,0,0,0,0,0,0,0,0,0,0,0,0,-0.0793457,-0.9938965,-0.1834717,0,0,0,0,0,0
0.01,0.1248982,0.2046205,-0.3974731,-0.2371478,0,0,0,0,0,0,0,0,0,0,0,0,0,0,0,0,0,-0.08154297,-0.9960938,-0.1854248,0,0,0,0,0,0
0.02,0.1412683,0.2243672,-0.4339764,-0.2562853,0,0,0,0,0,0,0,0,0,0,0,0,0,0,0,0,0,-0.07946777,-0.9984131,-0.1860352,0,0,0,0,0,0
0.03,0.1495468,0.234196,-0.4705287,-0.2753464,0,0,0,0,0,0,0,0,0,0,0,0,0,0,0,0,0,-0.07763672,-1.00354,-0.1861572,0,0,0,0,0,0
0.04,0.1646899,0.2455903,-0.5061976,-0.2867273,0,0,0,0,0,0,0,0,0,0,0,0,0,0,-0.003498683,-0.002249153,-0.001749341,-0.07800293,-1.003174,-0.1846924,0,0,0,0,0,0
0.05,0.1801196,0.2568918,-0.5332627,-0.2970523,0,0,0,0,0,0,0,0,0,0,0,0,0,0,0,0,0,-0.07666016,-0.9997559,-0.1862793,0,0,0,0,0,0
0.05999999,0.1958043,0.2681012,-0.5691504,-0.3081388,0,0,0,0,0,0,0,0,0,0,0,0,0,0,-0.003248512,-0.001749199,0.0007496566,-0.0760498,-0.9943848,-0.1851807,0,0,0,0,0,0
0.06999999,0.2029762,0.2696252,-0.5963356,-0.3182895,0,0,0,0,0,0,0,0,0,0,0,0,0,0,0,0,0,-0.07458496,-0.9934082,-0.1883545,0,0,0,0,0,0
0.07999999,0.2117165,0.2792203,-0.6227994,-0.3206127,0,0,0,0,0,0,0,0,0,0,0,0,0,0,0,0,0,-0.07556152,-0.9919434,-0.1824951,0,0,0,0,0,0
0.08999999,0.2263689,0.2821859,-0.6323897,-0.3291385,0,0,0,0,0,0,0,0,0,0,0,0,0,0,0,0,0,-0.07629395,-0.9869385,-0.1832275,0,0,0,0,0,0
0.09999999,0.2278321,0.2902519,-0.641232,-0.3298823,0,0,0,0,0,0,0,0,0,0,0,0,0,0,0,0,0,-0.07739258,-0.9869385,-0.1842041,0,0,0,0,0,0
0.11,0.2352409,0.2916988,-0.6500847,-0.3306145,0,0,0,0,0,0,0,0,0,0,0,0,0,0,0,0,0,-0.08105469,-0.9909668,-0.1842041,0,0,0,0,0,0
0.12,0.24413,0.3011993,-0.6500847,-0.3306145,0,0,0,0,0,0,0,0,0,0,0,0,0,0,0.001614612,-0.0009226355,-0.00207593,-0.07971191,-0.9936523,-0.1833496,0,0,0,0,0,0
0.13,0.24413,0.3011993,-0.6500847,-0.3306145,0,0,0,0,0,0,0,0,0,0,0,0,0,0,0,0,0,-0.07922363,-0.998291,-0.1806641,0,0,0,0,0,0
0.14,0.251642,0.3026075,-0.6500847,-0.3306145,0,0,0,0,0,0,0,0,0,0,0,0,0,0,0,0,0,-0.07568359,-1.000244,-0.1766357,0,0,0,0,0,0
0.15,0.251642,0.3026075,-0.6500847,-0.3306145,0,0,0,0,0,0,0,0,0,0,0,0,0,0,0,-0.001499313,-0.0007496566,-0.07653809,-0.9971924,-0.1773682,0,0,0,0,0,0
0.16,0.251642,0.3026075,-0.6500847,-0.3306145,0,0,0,0,0,0,0,0,0,0,0,0,0,0,0,0,0,-0.07177734,-0.9991455,-0.1799316,0,0,0,0,0,0
0.17,0.2592065,0.3040076,-0.6500847,-0.3306145,0,0,0,0,0,0,0,0,0,0,0,0,0,0,0,0,0,-0.07592773,-0.9945068,-0.1827393,0,0,0,0,0,0
0.18,0.2592065,0.3040076,-0.6500847,-0.3306145,0,0,0,0,0,0,0,0,0,0,0,0,0,0,-0.0002499059,-0.001999247,0.002249153,-0.07629395,-0.9929199,-0.1813965,0,0,0,0,0,0
0.19,0.2592065,0.3040076,-0.6500847,-0.3306145,0,0,0,0,0,0,0,0,0,0,0,0,0,0,0,0,0,-0.07751465,-0.9898682,-0.1821289,0,0,0,0,0,0
0.2,0.2592065,0.3040076,-0.6500847,-0.3306145,0,0,0,0,0,0,0,0,0,0,0,0,0,0,0,0,0,-0.07348633,-0.9904785,-0.1827393,0,0,0,0,0,0
0.21,0.2605914,0.3120663,-0.6589475,-0.3313352,0,0,0,0,0,0,0,0,0,0,0,0,0,0,-0.00224897,-0.001499313,0.001249428,-0.07849121,-0.9901123,-0.1827393,0,0,0,0,0,0
0.22,0.268198,0.3134362,-0.6589475,-0.3313352,0,0,0,0,0,0,0,0,0,0,0,0,0,0,0,0,0,-0.07641602,-0.9899902,-0.1860352,0,0,0,0,0,0
0.23,0.268198,0.3134362,-0.66782,-0.3320446,0,0,0,0,0,0,0,0,0,0,0,0,0,0,0,0,0,-0.07983398,-0.9945068,-0.1864014,0,0,0,0,0,0
0.24,0.2758533,0.3147973,-0.6855929,-0.3334304,0,0,0,0,0,0,0,0,0,0,0,0,0,0,0.0007496566,-0.001749199,0.001249428,-0.07702637,-1,-0.1856689,0,0,0,0,0,0
0.25,0.2758533,0.3147973,-0.6855929,-0.3334304,0,0,0,0,0,0,0,0,0,0,0,0,0,0,0,0,0,-0.07897949,-1.003906,-0.1807861,0,0,0,0,0,0
0.26,0.2772,0.3228565,-0.6944928,-0.3341073,0,0,0,0,0,0,0,0,0,0,0,0,0,0,0,0,0,-0.07995605,-1.003052,-0.18396,0,0,0,0,0,0
0.27,0.2772,0.3228565,-0.7040656,-0.3426202,0,0,0,0,0,0,0,0,0,0,0,0,0,0,-0.001153294,-0.001845271,0,-0.07946777,-1.001587,-0.1827393,0,0,0,0,0,0
0.28,0.2772,0.3228565,-0.7040656,-0.3426202,0,0,0,0,0,0,0,0,0,0,0,0,0,0,0,0,0,-0.08044434,-0.9984131,-0.182373,0,0,0,0,0,0
0.29,0.2772,0.3228565,-0.712972,-0.3432828,0,0,0,0,0,0,0,0,0,0,0,0,0,0,0,0,0,-0.08154297,-0.9952393,-0.1861572,0,0,0,0,0,0
0.3,0.2772,0.3228565,-0.712972,-0.3432828,0,0,0,0,0,0,0,0,0,0,0,0,0,0,-0.001999247,-0.001499435,-0.003498683,-0.07714844,-0.9891357,-0.1877441,0,0,0,0,0,0
0.31,0.2848933,0.3241889,-0.7218866,-0.3439355,0,0,0,0,0,0,0,0,0,0,0,0,0,0,0,0,0,-0.07666016,-0.9864502,-0.1867676,0,0,0,0,0,0
0.32,0.2848933,0.3241889,-0.7218866,-0.3439355,0,0,0,0,0,0,0,0,0,0,0,0,0,0,0,0,0,-0.07617188,-0.9820557,-0.1848145,0,0,0,0,0,0
0.33,0.2848933,0.3241889,-0.7308092,-0.3445784,0,0,0,0,0,0,0,0,0,0,0,0,0,0,0,0,0,-0.07568359,-0.9821777,-0.184082,0,0,0,0,0,0
0.3399999,0.2848933,0.3241889,-0.7308092,-0.3445784,0,0,0,0,0,0,0,0,0,0,0,0,0,0,0,0,0,-0.0793457,-0.9824219,-0.1829834,0,0,0,0,0,0
0.3499999,0.2848933,0.3241889,-0.7308092,-0.3445784,0,0,0,0,0,0,0,0,0,0,0,0,0,0,0,0,0,-0.07751465,-0.9882813,-0.1875,0,0,0,0,0,0
0.3599999,0.2848933,0.3241889,-0.7308092,-0.3445784,0,0,0,0,0,0,0,0,0,0,0,0,0,0,0.003498398,0.0002498855,-0.004248055,-0.07373047,-0.9901123,-0.1868896,0,0,0,0,0,0
0.3699999,0.2848933,0.3241889,-0.7308092,-0.3445784,0,0,0,0,0,0,0,0,0,0,0,0,0,0,0,0,0,-0.07019043,-0.9921875,-0.1813965,0,0,0,0,0,0
0.3799999,0.2848933,0.3241889,-0.7308092,-0.3445784,0,0,0,0,0,0,0,0,0,0,0,0,0,0,0,0,0,-0.07373047,-1.000366,-0.1809082,0,0,0,0,0,0
0.3899999,0.2848933,0.3241889,-0.7397394,-0.3452117,0,0,0,0,0,0,0,0,0,0,0,0,0,0,0,0,0,-0.07397461,-1.002441,-0.1787109,0,0,0,0,0,0
0.3999999,0.2848933,0.3241889,-0.7397394,-0.3452117,0,0,0,0,0,0,0,0,0,0,0,0,0,0,0,0,0,-0.07006836,-1.007568,-0.1737061,0,0,0,0,0,0
0.4099999,0.2848933,0.3241889,-0.7397394,-0.3452117,0,0,0,0,0,0,0,0,0,0,0,0,0,0,0.003498683,-0.001499435,0,-0.07299805,-1.009155,-0.1732178,0,0,0,0,0,0
0.4199999,0.2848933,0.3241889,-0.7576216,-0.3464501,0,0,0,0,0,0,0,0,0,0,0,0,0,0,0,0,0,-0.07641602,-1.005859,-0.1801758,0,0,0,0,0,0
0.4299999,0.2848933,0.3241889,-0.7665734,-0.3470556,0,0,0,0,0,0,0,0,0,0,0,0,0,0,0,0,0,-0.07592773,-1.002197,-0.1791992,0,0,0,0,0,0
0.4399998,0.2848933,0.3241889,-0.7755318,-0.3476522,0,0,0,0,0,0,0,0,0,0,0,0,0,0,0,0,0,-0.07385254,-1.004028,-0.1800537,0,0,0,0,0,0
0.4499998,0.2848933,0.3241889,-0.7844968,-0.34824,0,0,0,0,0,0,0,0,0,0,0,0,0,0,0,0,0,-0.07348633,-1.002686,-0.1826172,0,0,0,0,0,0
0.4599998,0.2848933,0.3241889,-0.8024456,-0.3493902,0,0,0,0,0,0,0,0,0,0,0,0,0,0,-0.003229225,0,-0.001845271,-0.07617188,-0.9940186,-0.1812744,0,0,0,0,0,0
0.4699998,0.2848933,0.3241889,-0.8204182,-0.3505073,0,0,0,0,0,0,0,0,0,0,0,0,0,0,0,0,0,-0.07446289,-0.9949951,-0.1824951,0,0,0,0,0,0
0.4799998,0.2862118,0.3322689,-0.8384132,-0.3515927,0,0,0,0,0,0,0,0,0,0,0,0,0,0,0,0,0,-0.07177734,-0.9949951,-0.1799316,0,0,0,0,0,0
0.4899998,0.2862118,0.3322689,-0.8474187,-0.3521238,0,0,0,0,0,0,0,0,0,0,0,0,0,0,0,0,0,-0.07641602,-0.993042,-0.1806641,0,0,0,0,0,0
0.4999998,0.2862118,0.3322689,-0.8564294,-0.3526474,0,0,0,0,0,0,0,0,0,0,0,0,0,0,0,0,0,-0.07861328,-0.9902344,-0.1821289,0,0,0,0,0,0
0.5099998,0.2875117,0.3403874,-0.865445,-0.3531637,0,0,0,0,0,0,0,0,0,0,0,0,0,0,0,0,0,-0.07727051,-0.9855957,-0.1828613,0,0,0,0,0,0
0.5199998,0.2875117,0.3403874,-0.865445,-0.3531637,0,0,0,0,0,0,0,0,0,0,0,0,0,0,-0.00224897,0.0004997711,-0.002748741,-0.07702637,-0.9849854,-0.1846924,0,0,0,0,0,0
0.5299998,0.2875117,0.3403874,-0.8744653,-0.3536727,0,0,0,0,0,0,0,0,0,0,0,0,0,0,0,0,0,-0.07727051,-0.9852295,-0.182373,0,0,0,0,0,0
0.5399998,0.2952329,0.341674,-0.8744653,-0.3536727,0,0,0,0,0,0,0,0,0,0,0,0,0,0,0,0,0,-0.07092285,-0.9919434,-0.182251,0,0,0,0,0,0
0.5499998,0.2952329,0.341674,-0.8834905,-0.3541746,0,0,0,0,0,0,0,0,0,0,0,0,0,0,0,0,0,-0.07324219,-0.9953613,-0.1837158,0,0,0,0,0,0
0.5599998,0.2952329,0.341674,-0.8834905,-0.3541746,0,0,0,0,0,0,0,0,0,0,0,0,0,0,0,0,0,-0.07299805,-0.9985352,-0.1818848,0,0,0,0,0,0
0.5699998,0.3042625,0.3510722,-0.8925201,-0.3546696,0,0,0,0,0,0,0,0,0,0,0,0,0,0,0,0,0,-0.07128906,-0.9976807,-0.1802979,0,0,0,0,0,0
0.5799997,0.3042625,0.3510722,-0.8925201,-0.3546696,0,0,0,0,0,0,0,0,0,0,0,0,0,0,-0.001383953,0.0002306589,-0.001383953,-0.07458496,-0.9987793,-0.1806641,0,0,0,0,0,0
0.5899997,0.3042625,0.3510722,-0.8925201,-0.3546696,0,0,0,0,0,0,0,0,0,0,0,0,0,0,0,0,0,-0.07324219,-0.9995117,-0.1833496,0,0,0,0,0,0
0.5999997,0.3042625,0.3510722,-0.8925201,-0.3546696,0,0,0,0,0,0,0,0,0,0,0,0,0,0,0,0,0,-0.07141113,-0.998291,-0.1804199,0,0,0,0,0,0
0.6099997,0.3120595,0.3523253,-0.8925201,-0.3546696,0,0,0,0,0,0,0,0,0,0,0,0,0,0,-0.002076113,-0.001845434,-0.0002306792,-0.06994629,-0.9991455,-0.1794434,0,0,0,0,0,0
0.6199997,0.3120595,0.3523253,-0.8925201,-0.3546696,0,0,0,0,0,0,0,0,0,0,0,0,0,0,0,0,0,-0.06958008,-0.9951172,-0.1820068,0,0,0,0,0,0
0.6299997,0.3120595,0.3523253,-0.8925201,-0.3546696,0,0,0,0,0,0,0,0,0,0,0,0,0,0,0,0,0,-0.07214355,-0.9932861,-0.1818848,0,0,0,0,0,0
0.6399997,0.3120595,0.3523253,-0.8925201,-0.3546696,0,0,0,0,0,0,0,0,0,0,0,0,0,0,-0.0007496566,-0.001249428,0.00224897,-0.07202148,-0.9996338,-0.1827393,0,0,0,0,0,0
0.6499997,0.3198965,0.3535698,-0.8925201,-0.3546696,0,0,0,0,0,0,0,0,0,0,0,0,0,0,0,0,0,-0.0736084,-0.9967041,-0.1842041,0,0,0,0,0,0
0.6599997,0.3198965,0.3535698,-0.9015543,-0.3551577,0,0,0,0,0,0,0,0,0,0,0,0,0,0,0,0,0,-0.07592773,-0.9945068,-0.1855469,0,0,0,0,0,0
0.6699997,0.3198965,0.3535698,-0.9020422,-0.3631598,0,0,0,0,0,0,0,0,0,0,0,0,0,0,0,0,0,-0.07641602,-0.9864502,-0.1884766,0,0,0,0,0,0
0.6799996,0.3277724,0.3548052,-0.9035419,-0.3872322,0,0,0,0,0,0,0,0,0,0,0,0,0,0,0,0,0,-0.07470703,-0.9886475,-0.1844482,0,0,0,0,0,0
0.6899996,0.3277724,0.3548052,-0.904053,-0.3952786,0,0,0,0,0,0,0,0,0,0,0,0,0,0,0,0,0,-0.07897949,-0.9934082,-0.1834717,0,0,0,0,0,0
0.6999996,0.3277724,0.3548052,-0.9045696,-0.4033362,0,0,0,0,0,0,0,0,0,0,0,0,0,0,0,0,0,-0.07946777,-0.9991455,-0.18396,0,0,0,0,0,0
0.7099996,0.3277724,0.3548052,-0.905091,-0.411405,0,0,0,0,0,0,0,0,0,0,0,0,0,0,0,0,0,-0.07495117,-0.9952393,-0.1864014,0,0,0,0,0,0
0.7199996,0.3277724,0.3548052,-0.905091,-0.411405,0,0,0,0,0,0,0,0,0,0,0,0,0,0,0,0,0,-0.07263184,-0.9921875,-0.1895752,0,0,0,0,0,0
0.7299996,0.3277724,0.3548052,-0.905091,-0.411405,0,0,0,0,0,0,0,0,0,0,0,0,0,0,0.0004613178,-0.00207593,-0.007381084,-0.07092285,-0.9876709,-0.1905518,0,0,0,0,0,0
0.7399996,0.3356863,0.3560309,-0.905091,-0.411405,0,0,0,0,0,0,0,0,0,0,0,0,0,0,0,0,0,-0.07507324,-0.9882813,-0.194458,0,0,0,0,0,0
0.7499996,0.3356863,0.3560309,-0.905091,-0.411405,0,0,0,0,0,0,0,0,0,0,0,0,0,0,0,0,0,-0.06848145,-0.989624,-0.1896973,0,0,0,0,0,0
0.7599996,0.3436371,0.3572465,-0.905091,-0.411405,0,0,0,0,0,0,0,0,0,0,0,0,0,0,0.00322951,-0.001153396,-0.001614755,-0.07275391,-0.9901123,-0.1866455,0,0,0,0,0,0
0.7699996,0.3436371,0.3572465,-0.905091,-0.411405,0,0,0,0,0,0,0,0,0,0,0,0,0,0,0,0,0,-0.0723877,-0.9958496,-0.1837158,0,0,0,0,0,0
0.7799996,0.3516239,0.3584515,-0.904053,-0.3952786,0,0,0,0,0,0,0,0,0,0,0,0,0,0,0,0,0,-0.07067871,-0.9995117,-0.1782227,0,0,0,0,0,0
0.7899995,0.3516239,0.3584515,-0.9030362,-0.379197,0,0,0,0,0,0,0,0,0,0,0,0,0,0,-0.0009995422,0.0004997711,-0.003998169,-0.06604004,-1.002197,-0.1843262,0,0,0,0,0,0
0.7999995,0.3584515,0.3516239,-0.9020422,-0.3631598,0,0,0,0,0,0,0,0,0,0,0,0,0,0,0,0,0,-0.06884766,-1.004395,-0.1800537,0,0,0,0,0,0
0.8099995,0.3584515,0.3516239,-0.8915501,-0.3387112,0,0,0,0,0,0,0,0,0,0,0,0,0,0,0,0,0,-0.07446289,-1.001465,-0.1806641,0,0,0,0,0,0
0.8199995,0.3572465,0.3436371,-0.8896939,-0.306925,0,0,0,0,0,0,0,0,0,0,0,0,0,0,-0.00449794,0.0002498855,-0.006247139,-0.07214355,-0.9932861,-0.1811523,0,0,0,0,0,0
0.8299995,0.3641244,0.3369002,-0.8888113,-0.2910954,0,0,0,0,0,0,0,0,0,0,0,0,0,0,0,0,0,-0.07287598,-0.9923096,-0.1844482,0,0,0,0,0,0
0.8399995,0.3629129,0.3289958,-0.8867524,-0.2516983,0,0,0,0,0,0,0,0,0,0,0,0,0,0,0,0,0,-0.06982422,-0.9898682,-0.1889648,0,0,0,0,0,0
0.8499995,0.3629129,0.3289958,-0.8856268,-0.2281746,0,0,0,0,0,0,0,0,0,0,0,0,0,0,0,0,0,-0.0682373,-0.9848633,-0.185791,0,0,0,0,0,0
0.8599995,0.3698493,0.3223457,-0.8842661,-0.1969326,0,0,0,0,0,0,0,0,0,0,0,0,0,0,0,0,0,-0.06799316,-0.9831543,-0.1848145,0,0,0,0,0,0
0.8699995,0.3686366,0.3145248,-0.8828083,-0.1580574,0,0,0,0,0,0,0,0,0,0,0,0,0,0,0,0,0,-0.06689453,-0.9870605,-0.1866455,0,0,0,0,0,0
0.8799995,0.367417,0.3067426,-0.8912647,-0.1350401,0,0,0,0,0,0,0,0,0,0,0,0,0,0,0,0,0,-0.06604004,-0.9941406,-0.1860352,0,0,0,0,0,0
0.8899994,0.3661911,0.2990001,-0.8998518,-0.1119987,0,0,0,0,0,0,0,0,0,0,0,0,0,0,0,0,0,-0.06835938,-0.987915,-0.1811523,0,0,0,0,0,0
0.8999994,0.3649597,0.2912982,-0.8990844,-0.0733159,0,0,0,0,0,0,0,0,0,0,0,0,0,0,0.006689698,-0.003460189,-0.003690868,-0.06933594,-0.9912109,-0.1862793,0,0,0,0,0,0
0.9099994,0.3707816,0.2772511,-0.8988651,-0.05786685,0,0,0,0,0,0,0,0,0,0,0,0,0,0,0.009245765,-0.003748283,-0.00224897,-0.06677246,-1.005127,-0.1817627,0,0,0,0,0,0
0.9199994,0.3683359,0.2621489,-0.8987746,-0.05014622,0,0,0,0,0,0,0,0,0,0,0,0,0,0,0,0,0,-0.05908203,-1.013184,-0.1757813,0,0,0,0,0,0
0.9299994,0.3671121,0.2546633,-0.9079208,-0.04249842,0,0,0,0,0,0,0,0,0,0,0,0,0,0,0,0,0,-0.06396484,-1.015259,-0.1740723,0,0,0,0,0,0
0.9399994,0.3646681,0.2398268,-0.9078571,-0.034769,0,0,0,0,0,0,0,0,0,0,0,0,0,0,0,0,0,-0.06811523,-1.002319,-0.1800537,0,0,0,0,0,0
0.9499994,0.3634503,0.2324772,-0.9078061,-0.02704103,0,0,0,0,0,0,0,0,0,0,0,0,0,0,0,0,0,-0.07226563,-0.9941406,-0.1789551,0,0,0,0,0,0
0.9599994,0.3622368,0.2251743,-0.9078061,-0.02704103,0,0,0,0,0,0,0,0,0,0,0,0,0,0,0,0,0,-0.0703125,-0.9973145,-0.1779785,0,0,0,0,0,0
0.9699994,0.3598287,0.2107105,-0.9077677,-0.01931421,0,0,0,0,0,0,0,0,0,0,0,0,0,0,0,0,0,-0.06506348,-0.9976807,-0.1810303,0,0,0,0,0,0
0.9799994,0.3586367,0.2035506,-0.9077422,-0.0115882,0,0,0,0,0,0,0,0,0,0,0,0,0,0,0,0,0,-0.0657959,-0.9949951,-0.1878662,0,0,0,0,0,0
0.9899994,0.366049,0.1976017,-0.9169565,-0.003869015,0,0,0,0,0,0,0,0,0,0,0,0,0,0,0,0,0,-0.0579834,-0.9998779,-0.1832275,0,0,0,0,0,0
0.9999993,0.3649065,0.1905264,-0.9169565,-0.003869015,0,0,0,0,0,0,0,0,0,0,0,0,0,0,0,0,0,-0.06555176,-0.9902344,-0.18396,0,0,0,0,0,0
1.009999,0.371365,0.1776094,-0.9169565,-0.003869015,0,0,0,0,0,0,0,0,0,0,0,0,0,0,0,0,0,-0.06835938,-0.9864502,-0.1872559,0,0,0,0,0,0
1.019999,0.3790455,0.1717044,-0.9261838,-0.003875246,0,0,0,0,0,0,0,0,0,0,0,0,0,0,-0.001845434,-0.00322951,0.0006920377,-0.07275391,-0.9831543,-0.1928711,0,0,0,0,0,0
1.029999,0.3770202,0.1578974,-0.9261838,-0.003875246,0,0,0,0,0,0,0,0,0,0,0,0,0,0,0,0,0,-0.06726074,-0.9857178,-0.185791,0,0,0,0,0,0
1.039999,0.3839567,0.1451937,-0.935411,-0.003881374,0,0,0,0,0,0,0,0,0,0,0,0,0,0,0,0,0,-0.06677246,-0.9848633,-0.1870117,0,0,0,0,0,0
1.049999,0.3911105,0.132525,-0.935411,-0.003881374,0,0,0,0,0,0,0,0,0,0,0,0,0,0,0.001614612,-0.006689108,-0.005997131,-0.06726074,-0.984375,-0.1928711,0,0,0,0,0,0
1.059999,0.3894897,0.1191002,-0.9446367,0,0,0,0,0,0,0,0,0,0,0,0,0,0,0,0,0,0,-0.06481934,-0.9849854,-0.1873779,0,0,0,0,0,0
1.069999,0.3963546,0.09989425,-0.9446367,0,0,0,0,0,0,0,0,0,0,0,0,0,0,0,0,0,0,-0.06445313,-0.9932861,-0.1888428,0,0,0,0,0,0
1.079999,0.3951074,0.08673089,-0.9538772,0.01168013,0,0,0,0,0,0,0,0,0,0,0,0,0,0,0.009245765,-0.009245765,-0.004248055,-0.06140137,-0.998291,-0.1818848,0,0,0,0,0,0
1.089999,0.3945394,0.08019093,-0.9538772,0.01168013,0,0,0,0,0,0,0,0,0,0,0,0,0,0,0,0,0,-0.06872559,-1.012695,-0.1727295,0,0,0,0,0,0
1.099999,0.4026695,0.06764849,-0.9538772,0.01168013,0,0,0,0,0,0,0,0,0,0,0,0,0,0,0,0,0,-0.06994629,-1.015503,-0.166748,0,0,0,0,0,0
1.109999,0.4022346,0.06113966,-0.9631041,0.01169762,0,0,0,0,0,0,0,0,0,0,0,0,0,0,0,0,0,-0.06494141,-1.019165,-0.168457,0,0,0,0,0,0
1.119999,0.4022346,0.06113966,-0.9631041,0.01169762,0,0,0,0,0,0,0,0,0,0,0,0,0,0,0,0,0,-0.06140137,-1.006104,-0.1743164,0,0,0,0,0,0
1.129999,0.4022346,0.06113966,-0.9631041,0.01169762,0,0,0,0,0,0,0,0,0,0,0,0,0,0,0,0,0,-0.07067871,-1.003418,-0.182373,0,0,0,0,0,0
1.139999,0.4022346,0.06113966,-0.9631041,0.01169762,0,0,0,0,0,0,0,0,0,0,0,0,0,0,0.0002498855,-0.004997711,0.00449794,-0.0682373,-1.004639,-0.1799316,0,0,0,0,0,0
1.149999,0.4022346,0.06113966,-0.9631041,0.01169762,0,0,0,0,0,0,0,0,0,0,0,0,0,0,0,0,0,-0.06750488,-0.9974365,-0.180542,0,0,0,0,0,0
1.159999,0.4018404,0.0546503,-0.9631041,0.01169762,0,0,0,0,0,0,0,0,0,0,0,0,0,0,0,0,0,-0.06677246,-0.9985352,-0.1824951,0,0,0,0,0,0
1.169999,0.4018404,0.0546503,-0.9631041,0.01169762,0,0,0,0,0,0,0,0,0,0,0,0,0,0,0,0,0,-0.06604004,-1.003906,-0.178833,0,0,0,0,0,0
1.179999,0.4018404,0.0546503,-0.9631041,0.01169762,0,0,0,0,0,0,0,0,0,0,0,0,0,0,0,0,0,-0.07177734,-0.9915771,-0.175415,0,0,0,0,0,0
1.189999,0.3926652,0.0542708,-0.9631041,0.01169762,0,0,0,0,0,0,0,0,0,0,0,0,0,0,0,0,0,-0.0690918,-0.9892578,-0.1794434,0,0,0,0,0,0
1.199999,0.3926652,0.0542708,-0.9631041,0.01169762,0,0,0,0,0,0,0,0,0,0,0,0,0,0,0,0,0,-0.07092285,-0.9891357,-0.1829834,0,0,0,0,0,0
1.209999,0.3926652,0.0542708,-0.9631041,0.01169762,0,0,0,0,0,0,0,0,0,0,0,0,0,0,0,0,0,-0.07263184,-0.9864502,-0.1798096,0,0,0,0,0,0
1.219999,0.3923012,0.04784161,-0.9631041,0.01169762,0,0,0,0,0,0,0,0,0,0,0,0,0,0,-0.001249428,-0.003998169,-0.0004997711,-0.07250977,-0.9847412,-0.1782227,0,0,0,0,0,0
1.229999,0.3923012,0.04784161,-0.9631041,0.01169762,0,0,0,0,0,0,0,0,0,0,0,0,0,0,0,0,0,-0.07397461,-0.9824219,-0.1802979,0,0,0,0,0,0
1.239999,0.3919809,0.04142888,-0.9631041,0.01169762,0,0,0,0,0,0,0,0,0,0,0,0,0,0,0,0,0,-0.07226563,-0.9885254,-0.18396,0,0,0,0,0,0
1.249999,0.3917049,0.03503053,-0.9631041,0.01169762,0,0,0,0,0,0,0,0,0,0,0,0,0,0,0.001749341,-0.006497554,-0.001999247,-0.07116699,-1.007813,-0.1795654,0,0,0,0,0,0
1.259999,0.391474,0.02864444,-0.9631041,0.01169762,0,0,0,0,0,0,0,0,0,0,0,0,0,0,0,0,0,-0.06884766,-1.005493,-0.1520996,0,0,0,0,0,0
1.269999,0.3822624,0.02843274,-0.972388,0.02733621,0,0,0,0,0,0,0,0,0,0,0,0,0,0,0,0,0,-0.1019287,-1.010254,-0.06518555,0,0,0,0,0,0
1.279999,0.3822624,0.02843274,-0.9817148,0.04302336,0,0,0,0,0,0,0,0,0,0,0,0,0,0,0,0,0,-0.1195068,-1.018677,-0.1955566,0,0,0,0,0,0
1.289999,0.3822624,0.02843274,-1,0.06669273,0,0,0,0,0,0,0,0,0,1,0,0,0,0,0,0,0,-0.04821777,-0.977417,-0.1665039,0,0,0,0,0,0
1.299999,0.3822624,0.02843274,-1,0.09026043,0,0,0,0,0,0,0,0,0,1,0,0,0,0,0,0,0,-0.04199219,-0.9830322,-0.256958,0,0,0,0,0,0
1.309999,0.3822624,0.02843274,-1,0.09812176,0,0,0,0,0,0,0,0,0,1,0,0,0,0,-0.02537248,-0.01614612,-0.01799139,-0.04431152,-0.973999,-0.2523193,0,0,0,0,0,0
1.319999,0.3822624,0.02843274,-1,0.1059862,0,0,0,0,0,0,0,0,0,1,0,0,0,0,0,0,0,-0.05627441,-0.9858398,-0.2714844,0,0,0,0,0,0
1.329999,0.3822624,0.02843274,-1,0.1059862,0,0,0,0,0,0,0,0,0,1,0,0,0,0,0,0,0,-0.06555176,-0.9887695,-0.1911621,0,0,0,0,0,0
1.339999,0.3822624,0.02843274,-1,0.1059862,0,0,0,0,0,0,0,0,0,1,0,0,0,0,0,0,0,-0.06994629,-0.9827881,-0.2005615,0,0,0,0,0,0
1.349999,0.3819267,0.0157821,-1,0.1059862,0,0,0,0,0,0,0,0,0,1,0,0,0,0,0,0,0,-0.06774902,-1.001953,-0.2053223,0,0,0,0,0,0
1.359999,0.3818305,0.009466871,-1,0.1059862,0,0,0,0,0,0,0,0,0,1,0,0,0,0,0.02348924,-0.00224897,0.01499313,-0.05603027,-0.9996338,-0.1726074,0,0,0,0,0,0
1.369999,0.372549,0,-1,0.1059862,0,0,0,0,0,0,0,0,0,1,0,0,0,0,0,0,0,-0.05151367,-1.012085,-0.1876221,0,0,0,0,0,0
1.379999,0.3725553,-0.003130716,-1,0.09026043,0,0,0,0,0,0,0,0,0,0,0,0,0,0,0,0,0,-0.06872559,-1.019531,-0.1516113,0,0,0,0,0,0
1.389999,0.3725553,-0.003130716,-1,0.07454614,0,0,0,0,0,0,0,0,0,0,0,0,0,0,0,0,0,-0.08959961,-0.9387207,-0.322876,0,0,0,0,0,0
1.399999,0.3725553,-0.003130716,-1,0.06669273,0,0,0,0,0,0,0,0,0,0,0,0,0,0,0,0,0,-0.03466797,-1.029907,-0.2138672,0,0,0,0,0,0
1.409999,0.3633798,-0.00931743,-1,0.05099206,0,0,0,0,0,0,0,0,0,0,0,0,0,0,0.008496109,0.01574279,-0.007246681,-0.09777832,-1.001831,-0.1397705,0,0,0,0,0,0
1.419999,0.3542611,-0.01540266,-1,0.04314433,0,0,0,0,0,0,0,0,0,0,0,0,0,0,0,0,0,-0.08825684,-0.9848633,-0.1859131,0,0,0,0,0,0
1.429999,0.3454244,-0.02751168,-1,0.04314433,0,0,0,0,0,0,0,0,0,0,0,0,0,0,-0.002998627,-0.003248512,-0.01324393,-0.08862305,-0.9782715,-0.2061768,0,0,0,0,0,0
1.439999,0.3365003,-0.03334688,-1,0.04314433,0,0,0,0,0,0,0,0,0,0,0,0,0,0,0,0,0,-0.08435059,-0.9949951,-0.1884766,0,0,0,0,0,0
1.449999,0.3285208,-0.0512372,-1,0.04314433,0,0,0,0,0,0,0,0,0,0,0,0,0,0,0,0,0,-0.06469727,-1.013672,-0.1591797,0,0,0,0,0,0
1.459999,0.3204892,-0.06289976,-1,0.04314433,0,0,0,0,0,0,0,0,0,0,0,0,0,0,-0.02149016,-0.001999084,0.003748283,-0.08068848,-1.03186,-0.0958252,0,0,0,0,0,0
1.469999,0.3204892,-0.06289976,-1,0.06669273,0,0,0,0,0,0,0,0,0,0,0,0,0,0,0,0,0,-0.1014404,-1.029419,-0.1547852,0,0,0,0,0,0
1.479999,0.3113854,-0.06227708,-1,0.1059862,0,0,0,0,0,0,0,0,0,1,0,0,0,0,0,0,0,-0.06591797,-1.014038,-0.0501709,0,0,0,0,0,0
1.489999,0.3113854,-0.06227708,-1,0.1374799,0,0,0,0,0,0,0,0,0,1,0,0,0,0,0,0,0,-0.1171875,-0.9486084,-0.1905518,0,0,0,0,0,0
1.499999,0.3022885,-0.06163165,-1,0.1769445,0,0,0,0,0,0,0,0,0,1,0,0,0,0,0,0,0,-0.03405762,-0.9592285,-0.2390137,0,0,0,0,0,0
1.509999,0.2939091,-0.0669298,-1,0.1927661,0,0,0,0,0,0,0,0,0,1,0,0,0,0,0,0,0,-0.05749512,-0.9515381,-0.2353516,0,0,0,0,0,0
1.519999,0.2848547,-0.06617837,-1,0.2006854,0,0,0,0,0,0,0,0,0,1,0,0,0,0,0,0,0,-0.05236816,-0.9605713,-0.2196045,0,0,0,0,0,0
1.529999,0.2775127,-0.07724581,-1,0.2006854,0,0,0,0,0,0,0,0,0,1,0,0,0,0,0,0,0,-0.05273438,-0.973999,-0.1993408,0,0,0,0,0,0
1.539999,0.2695113,-0.08227186,-1,0.2006854,0,0,0,0,0,0,0,0,0,1,0,0,0,0,0.02076113,-0.001845434,0.00322951,-0.05541992,-0.9837646,-0.1745605,0,0,0,0,0,0
1.549999,0.2695113,-0.08227186,-1,0.2006854,0,0,0,0,0,0,0,0,0,1,0,0,0,0,0,0,0,-0.05578613,-0.99646,-0.1739502,0,0,0,0,0,0
1.559999,0.2605959,-0.08126108,-1,0.1848525,0,0,0,0,0,0,0,0,0,0,0,0,0,0,0,0,0,-0.07287598,-1.030029,-0.07507324,0,0,0,0,0,0
1.569999,0.2605959,-0.08126108,-1,0.1769445,0,0,0,0,0,0,0,0,0,0,0,0,0,0,0,0,0,-0.0604248,-0.9499512,-0.3304443,0,0,0,0,0,0
1.579999,0.2605959,-0.08126108,-0.983638,0.1528362,0,0,0,0,0,0,0,0,0,0,0,0,0,0,0,0,0,-0.06335449,-0.984375,-0.2298584,0,0,0,0,0,0
1.589999,0.2605959,-0.08126108,-0.9648366,0.1367177,0,0,0,0,0,0,0,0,0,0,0,0,0,0,0,0,0,-0.06530762,-1.011841,-0.1740723,0,0,0,0,0,0
1.599999,0.2605959,-0.08126108,-0.9460554,0.1206902,0,0,0,0,0,0,0,0,0,0,0,0,0,0,0.005247597,-0.0002498855,-0.001749199,-0.09240723,-0.9958496,-0.1751709,0,0,0,0,0,0
1.609999,0.2605959,-0.08126108,-0.9368515,0.1205079,0,0,0,0,0,0,0,0,0,0,0,0,0,0,0,0,0,-0.07971191,-1.010376,-0.2020264,0,0,0,0,0,0
1.619999,0.2516995,-0.08021192,-0.9276482,0.1203226,0,0,0,0,0,0,0,0,0,0,0,0,0,0,0,0,0,-0.06408691,-1.007202,-0.1779785,0,0,0,0,0,0
1.629999,0.2516995,-0.08021192,-0.9000421,0.1197481,0,0,0,0,0,0,0,0,0,0,0,0,0,0,-0.0007496566,-0.007496567,0.006497024,-0.06262207,-1.018311,-0.1273193,0,0,0,0,0,0
1.639999,0.2516995,-0.08021192,-0.8816412,0.1193488,0,0,0,0,0,0,0,0,0,0,0,0,0,0,0,0,0,-0.07263184,-1.003906,-0.1746826,0,0,0,0,0,0
1.649999,0.2516995,-0.08021192,-0.8632431,0.1189357,0,0,0,0,0,0,0,0,0,0,0,0,0,0,0,0,0,-0.06335449,-1.00708,-0.166748,0,0,0,0,0,0
1.659999,0.2516995,-0.08021192,-0.8542656,0.126416,0,0,0,0,0,0,0,0,0,0,0,0,0,0,-0.01384075,-0.007843095,0.006228339,-0.05786133,-0.9519043,-0.2397461,0,0,0,0,0,0
1.669999,0.2516995,-0.08021192,-0.8361214,0.1336267,0,0,0,0,0,0,0,0,0,1,0,0,0,0,0,0,0,-0.04333496,-1.033813,-0.1116943,0,0,0,0,0,0
1.679999,0.2516995,-0.08021192,-0.8271934,0.1410422,0,0,0,0,0,0,0,0,0,1,0,0,0,0,0,0,0,-0.06005859,-0.9768066,-0.1743164,0,0,0,0,0,0
1.689999,0.2516995,-0.08021192,-0.8182892,0.1484338,0,0,0,0,0,0,0,0,0,1,0,0,0,0,-0.0004613178,-0.01222492,0.0006919767,-0.06665039,-0.9680176,-0.2106934,0,0,0,0,0,0
1.699999,0.2516995,-0.08021192,-0.8094095,0.1558018,0,0,0,0,0,0,0,0,0,1,0,0,0,0,0,0,0,-0.07312012,-0.9857178,-0.2071533,0,0,0,0,0,0
1.709999,0.2527946,-0.08611684,-0.7819096,0.154871,0,0,0,0,0,0,0,0,0,1,0,0,0,0,0,0,0,-0.06640625,-0.9780273,-0.166626,0,0,0,0,0,0
1.719999,0.2527946,-0.08611684,-0.7635851,0.1542216,0,0,0,0,0,0,0,0,0,1,0,0,0,0,0,0,0,-0.07189941,-1.001221,-0.1894531,0,0,0,0,0,0
1.729999,0.2539394,-0.09208794,-0.7364699,0.1607523,0,0,0,0,0,0,0,0,0,1,0,0,0,0,0,0,0,-0.06420898,-0.989502,-0.1791992,0,0,0,0,0,0
1.739999,0.2551305,-0.09812711,-0.7094319,0.1671436,0,0,0,0,0,0,0,0,0,1,0,0,0,0,0.01924119,0.008496109,0.0002498855,-0.06970215,-1,-0.1766357,0,0,0,0,0,0
1.749999,0.2463835,-0.09689238,-0.6911724,0.1663249,0,0,0,0,0,0,0,0,0,0,0,0,0,0,0,0,0,-0.07739258,-1.016846,-0.1474609,0,0,0,0,0,0
1.759999,0.2463835,-0.09689238,-0.6820471,0.1659034,0,0,0,0,0,0,0,0,0,0,0,0,0,0,0,0,0,-0.1069336,-0.9986572,-0.2423096,0,0,0,0,0,0
1.769999,0.2476613,-0.1029603,-0.654691,0.1645871,0,0,0,0,0,0,0,0,0,0,0,0,0,0,0,0,0,-0.02807617,-1.002441,-0.192749,0,0,0,0,0,0
1.779999,0.2476613,-0.1029603,-0.6364713,0.163664,0,0,0,0,0,0,0,0,0,0,0,0,0,0,0,0,0,-0.08081055,-1.005371,-0.1677246,0,0,0,0,0,0
1.789999,0.2489782,-0.1091028,-0.6091713,0.1622054,0,0,0,0,0,0,0,0,0,0,0,0,0,0,0,0,0,-0.08398438,-0.9949951,-0.1766357,0,0,0,0,0,0
1.799999,0.240353,-0.1077445,-0.60008,0.1616982,0,0,0,0,0,0,0,0,0,0,0,0,0,0,0,0,0,-0.06896973,-1.012207,-0.2078857,0,0,0,0,0,0
1.809999,0.2417518,-0.113929,-0.5728346,0.160109,0,0,0,0,0,0,0,0,0,0,0,0,0,0,0,0,0,-0.06335449,-0.998291,-0.1785889,0,0,0,0,0,0
1.819999,0.2517146,-0.1216149,-0.5456368,0.1584107,0,0,0,0,0,0,0,0,0,0,0,0,0,0,0,0,0,-0.06677246,-1.026245,-0.1315918,0,0,0,0,0,0
1.829999,0.243182,-0.1201934,-0.5281581,0.1643936,0,0,0,0,0,0,0,0,0,0,0,0,0,0,0,0,0,-0.06567383,-1.019653,-0.151001,0,0,0,0,0,0
1.839999,0.243182,-0.1201934,-0.5204669,0.1781464,0,0,0,0,0,0,0,0,0,0,0,0,0,0,0,0,0,-0.0802002,-1.029541,-0.1557617,0,0,0,0,0,0
1.849999,0.243182,-0.1201934,-0.4869114,0.1968365,0,0,0,0,0,0,0,0,0,1,0,0,0,0,0,0,0,-0.1116943,-1.053833,0.03295898,0,0,0,0,0,0
1.859999,0.243182,-0.1201934,-0.4805598,0.2178077,0,0,0,0,0,0,0,0,0,1,0,0,0,0,0,0,0,-0.114624,-0.9766846,-0.1791992,0,0,0,0,0,0
1.869999,0.243182,-0.1201934,-0.4569654,0.2370723,0,0,0,0,0,0,0,0,0,1,0,0,0,0,0,0,0,-0.07458496,-0.9797363,-0.2183838,0,0,0,0,0,0
1.879999,0.243182,-0.1201934,-0.4350272,0.2637566,0,0,0,0,0,0,0,0,0,1,0,0,0,0,-0.007996337,-0.0189913,0.003748283,-0.06542969,-0.9716797,-0.213501,0,0,0,0,0,0
1.889999,0.2446398,-0.1265378,-0.4116012,0.2755347,0,0,0,0,0,0,0,0,0,1,0,0,0,0,0,0,0,-0.06799316,-0.970459,-0.2175293,0,0,0,0,0,0
1.899999,0.2476239,-0.1394663,-0.3886517,0.2872643,0,0,0,0,0,0,0,0,0,1,0,0,0,0,0,0,0,-0.06103516,-0.9771729,-0.1859131,0,0,0,0,0,0
1.909999,0.2491433,-0.1460495,-0.3485429,0.2887927,0,0,0,0,0,0,0,0,0,1,0,0,0,0,0.01749199,-0.001249428,0.005247597,-0.06030273,-0.9764404,-0.1722412,0,0,0,0,0,0
1.919999,0.2506766,-0.152711,-0.3029333,0.2964186,0,0,0,0,0,0,0,0,0,1,0,0,0,0,0.02198993,0.004747826,0.00224897,-0.06066895,-0.9819336,-0.1956787,0,0,0,0,0,0
1.929999,0.2522209,-0.15945,-0.2412582,0.2851233,0,0,0,0,0,0,0,0,0,1,0,0,0,0,0,0,0,-0.07116699,-0.991333,-0.1697998,0,0,0,0,0,0
1.939999,0.2455903,-0.1646899,-0.2117165,0.2792203,0,0,0,0,0,0,0,0,0,0,0,0,0,0,0.01574279,0.01324393,-0.0007496566,-0.0715332,-1.007813,-0.1739502,0,0,0,0,0,0
1.949998,0.2455903,-0.1646899,-0.1958043,0.2681012,0,0,0,0,0,0,0,0,0,0,0,0,0,0,0,0,0,-0.1010742,-1.028442,-0.1057129,0,0,0,0,0,0
1.959998,0.2455903,-0.1646899,-0.1769234,0.2407319,0,0,0,0,0,0,0,0,0,0,0,0,0,0,0,0,0,-0.05371094,-1.005859,-0.1962891,0,0,0,0,0,0
1.969998,0.2374594,-0.1630745,-0.1529188,0.219647,0,0,0,0,0,0,0,0,0,0,0,0,0,0,0.01174462,0.001249428,-0.002998627,-0.08776855,-0.9929199,-0.1965332,0,0,0,0,0,0
1.979998,0.2293837,-0.1614181,-0.1360629,0.2000926,0,0,0,0,0,0,0,0,0,0,0,0,0,0,0,0,0,-0.0723877,-1.012817,-0.1748047,0,0,0,0,0,0
1.989998,0.2230843,-0.1666072,-0.1154958,0.1646429,0,0,0,0,0,0,0,0,0,0,0,0,0,0,0,0,0,-0.09484863,-1.001099,-0.1745605,0,0,0,0,0,0
1.999998,0.2186673,-0.1789096,-0.09501038,0.1506262,0,0,0,0,0,0,0,0,0,0,0,0,0,0,-0.0009995422,-0.009745537,0.002748741,-0.07666016,-1.012817,-0.1591797,0,0,0,0,0,0
2.009999,0.2186673,-0.1789096,-0.08913743,0.1485624,0,0,0,0,0,0,0,0,0,0,0,0,0,0,0,0,0,-0.06860352,-1.004883,-0.1317139,0,0,0,0,0,0
2.019999,0.2186673,-0.1789096,-0.08340386,0.1465203,0,0,0,0,0,0,0,0,0,0,0,0,0,0,0,0,0,-0.08300781,-1.004883,-0.1693115,0,0,0,0,0,0
2.029999,0.2204,-0.186052,-0.07781168,0.1445074,0,0,0,0,0,0,0,0,0,0,0,0,0,0,-0.02099039,-0.008995879,0.007496567,-0.07189941,-0.9821777,-0.1936035,0,0,0,0,0,0
2.039999,0.2204,-0.186052,-0.07236225,0.1425317,0,0,0,0,0,0,0,0,0,1,0,0,0,0,0,0,0,-0.01525879,-0.927002,-0.3530273,0,0,0,0,0,0
2.049999,0.2204,-0.186052,-0.06541947,0.1556532,0,0,0,0,0,0,0,0,0,1,0,0,0,0,0,0,0,-0.1154785,-0.9787598,-0.1539307,0,0,0,0,0,0
2.059999,0.2144159,-0.1915448,-0.05816502,0.1698419,0,0,0,0,0,0,0,0,0,1,0,0,0,0,-0.008765038,-0.00830372,0.002998566,-0.05371094,-0.9832764,-0.2218018,0,0,0,0,0,0
2.069999,0.2144159,-0.1915448,-0.05045334,0.1849956,0,0,0,0,0,0,0,0,0,1,0,0,0,0,0,0,0,-0.07580566,-0.972168,-0.1981201,0,0,0,0,0,0
2.079998,0.2144159,-0.1915448,-0.03707075,0.2001821,0,0,0,0,0,0,0,0,0,1,0,0,0,0,0,0,0,-0.06567383,-0.9692383,-0.1962891,0,0,0,0,0,0
2.089998,0.2085458,-0.1971187,-0.02249864,0.2074874,0,0,0,0,0,0,0,0,0,1,0,0,0,0,0.01024531,-0.002748741,-0.005497482,-0.06652832,-0.9892578,-0.2010498,0,0,0,0,0,0
2.099998,0.2027828,-0.2027828,-0.01245653,0.2067784,0,0,0,0,0,0,0,0,0,1,0,0,0,0,0,0,0,-0.06115723,-0.9825439,-0.1870117,0,0,0,0,0,0
2.109998,0.2027828,-0.2027828,0,0.2064591,0,0,0,0,0,0,0,0,0,1,0,0,0,0,0,0,0,-0.07434082,-1.000488,-0.1878662,0,0,0,0,0,0
2.119998,0.1971187,-0.2085458,0.01245653,0.2067784,0,0,0,0,0,0,0,0,0,0,0,0,0,0,0.009996235,0.009246519,-0.003248777,-0.07678223,-1.024536,-0.1436768,0,0,0,0,0,0
2.129998,0.1953508,-0.2010131,0.01746486,0.2070833,0,0,0,0,0,0,0,0,0,0,0,0,0,0,0,0,0,-0.04663086,-0.9537354,-0.2738037,0,0,0,0,0,0
2.139998,0.1971187,-0.2085458,0.01589596,0.1703138,0,0,0,0,0,0,0,0,0,0,0,0,0,0,0,0,0,-0.02941895,-1.027832,-0.1964111,0,0,0,0,0,0
2.149998,0.1971187,-0.2085458,0.0134,0.1244286,0,0,0,0,0,0,0,0,0,0,0,0,0,0,0.01149474,0.008246223,-0.004997711,-0.09472656,-1.000977,-0.1600342,0,0,0,0,0,0
2.159998,0.1971187,-0.2085458,0.0115039,0.09696148,0,0,0,0,0,0,0,0,0,0,0,0,0,0,0,0,0,-0.07055664,-1.015503,-0.1883545,0,0,0,0,0,0
2.169998,0.1897857,-0.2067815,0.009188499,0.06957007,0,0,0,0,0,0,0,0,0,0,0,0,0,0,0,0,0,-0.07885742,-1.001709,-0.1931152,0,0,0,0,0,0
2.179998,0.1897857,-0.2067815,0.008298798,0.06046266,0,0,0,0,0,0,0,0,0,0,0,0,0,0,0,0,0,-0.07836914,-0.9975586,-0.173584,0,0,0,0,0,0
2.189998,0.1897857,-0.2067815,0.01085449,0.06150878,0,0,0,0,0,0,0,0,0,0,0,0,0,0,0,0,0,-0.07543945,-1.017578,-0.1611328,0,0,0,0,0,0
2.199998,0.1897857,-0.2067815,0.01085449,0.06150878,0,0,0,0,0,0,0,0,0,0,0,0,0,0,-0.01568481,-0.00415186,0.001845271,-0.07507324,-1.013916,-0.1768799,0,0,0,0,0,0
2.209998,0.1897857,-0.2067815,0.01354303,0.06279039,0,0,0,0,0,0,0,0,0,0,0,0,0,0,-0.01637678,-0.008534378,0.00415186,-0.07165527,-0.9892578,-0.1817627,0,0,0,0,0,0
2.219998,0.1915448,-0.2144159,0.01638804,0.06429155,0,0,0,0,0,0,0,0,0,0,0,0,0,0,0,0,0,-0.04968262,-0.9658203,-0.2941895,0,0,0,0,0,0
2.229998,0.1915448,-0.2144159,0.0263185,0.08514809,0,0,0,0,0,0,0,0,0,1,0,0,0,0,0,0,0,-0.1182861,-0.9598389,-0.1942139,0,0,0,0,0,0
2.239998,0.186052,-0.2204,0.03517912,0.1129435,0,0,0,0,0,0,0,0,0,1,0,0,0,0,-0.008996612,-0.01024614,0.002499059,-0.04943848,-0.980957,-0.1981201,0,0,0,0,0,0
2.249998,0.186052,-0.2204,0.04559422,0.1248885,0,0,0,0,0,0,0,0,0,1,0,0,0,0,0,0,0,-0.06445313,-0.9697266,-0.2023926,0,0,0,0,0,0
2.259998,0.1877615,-0.2282025,0.0602617,0.1540021,0,0,0,0,0,0,0,0,0,1,0,0,0,0,0,0,0,-0.05773926,-0.975708,-0.2033691,0,0,0,0,0,0
2.269998,0.1839639,-0.2423652,0.07240869,0.1658393,0,0,0,0,0,0,0,0,0,1,0,0,0,0,0.009745537,-0.001249428,-0.005497482,-0.06982422,-0.989624,-0.1785889,0,0,0,0,0,0
2.279998,0.1855774,-0.2503822,0.07955717,0.1759901,0,0,0,0,0,0,0,0,0,1,0,0,0,0,0,0,0,-0.06115723,-0.9853516,-0.1817627,0,0,0,0,0,0
2.289998,0.1801196,-0.2568918,0.09851561,0.1894531,0,0,0,0,0,0,0,0,0,1,0,0,0,0,0,0,0,-0.06970215,-0.9915771,-0.1881104,0,0,0,0,0,0
2.299998,0.1746964,-0.2635252,0.1106116,0.1929272,0,0,0,0,0,0,0,0,0,1,0,0,0,0,0.01149474,0.007746452,-0.005747368,-0.06750488,-0.998291,-0.1702881,0,0,0,0,0,0
2.309998,0.1678013,-0.2620055,0.1106116,0.1929272,0,0,0,0,0,0,0,0,0,0,0,0,0,0,0,0,0,-0.07458496,-1.01355,-0.1506348,0,0,0,0,0,0
2.319998,0.1609786,-0.2604927,0.1106116,0.1929272,0,0,0,0,0,0,0,0,0,0,0,0,0,0,0,0,0,-0.06884766,-0.923584,-0.3543701,0,0,0,0,0,0
2.329998,0.1557072,-0.2673462,0.1168191,0.1946985,0,0,0,0,0,0,0,0,0,0,0,0,0,0,0.00449794,-0.0007496566,-0.007746452,-0.05419922,-0.984375,-0.2027588,0,0,0,0,0,0
2.339998,0.1557072,-0.2673462,0.1168191,0.1946985,0,0,0,0,0,0,0,0,0,0,0,0,0,0,0,0,0,-0.08728027,-0.99646,-0.1690674,0,0,0,0,0,0
2.349998,0.1504413,-0.2743341,0.1131416,0.1785123,0,0,0,0,0,0,0,0,0,0,0,0,0,0,0,0,0,-0.06860352,-1.005493,-0.1778564,0,0,0,0,0,0
2.359998,0.1504413,-0.2743341,0.1112123,0.1705255,0,0,0,0,0,0,0,0,0,0,0,0,0,0,0,0,0,-0.07080078,-1.008911,-0.1781006,0,0,0,0,0,0
2.369998,0.1438072,-0.2729402,0.1092202,0.1626167,0,0,0,0,0,0,0,0,0,0,0,0,0,0,0,0,0,-0.07763672,-0.9985352,-0.1715088,0,0,0,0,0,0
2.379998,0.145172,-0.2814558,0.1071636,0.1547919,0,0,0,0,0,0,0,0,0,0,0,0,0,0,0,0,0,-0.06982422,-1.010742,-0.1586914,0,0,0,0,0,0
2.389998,0.1385863,-0.2801213,0.1071636,0.1547919,0,0,0,0,0,0,0,0,0,0,0,0,0,0,0,0,0,-0.06262207,-1.000488,-0.1499023,0,0,0,0,0,0
2.399998,0.1385863,-0.2801213,0.1071636,0.1547919,0,0,0,0,0,0,0,0,0,0,0,0,0,0,0,0,0,-0.07580566,-0.9915771,-0.1668701,0,0,0,0,0,0
2.409998,0.1385863,-0.2801213,0.1071636,0.1547919,0,0,0,0,0,0,0,0,0,0,0,0,0,0,-0.01599267,-0.002498855,0.005747368,-0.06994629,-0.9825439,-0.1845703,0,0,0,0,0,0
2.419998,0.1385863,-0.2801213,0.1071636,0.1547919,0,0,0,0,0,0,0,0,0,0,0,0,0,0,0,0,0,-0.05322266,-0.9666748,-0.2523193,0,0,0,0,0,0
2.429998,0.1385863,-0.2801213,0.1071636,0.1547919,0,0,0,0,0,0,0,0,0,1,0,0,0,0,-0.008995879,-0.007246681,0.004997711,-0.06750488,-0.9447021,-0.232666,0,0,0,0,0,0
2.439998,0.1385863,-0.2801213,0.1071636,0.1547919,0,0,0,0,0,0,0,0,0,1,0,0,0,0,0,0,0,-0.05688477,-0.9837646,-0.2043457,0,0,0,0,0,0
2.449998,0.1385863,-0.2801213,0.1092202,0.1626167,0,0,0,0,0,0,0,0,0,1,0,0,0,0,0,0,0,-0.06591797,-0.993042,-0.189209,0,0,0,0,0,0
2.459998,0.1320678,-0.2788098,0.1071636,0.1547919,0,0,0,0,0,0,0,0,0,1,0,0,0,0,0.007746452,-0.003498398,0.001499313,-0.06665039,-0.9898682,-0.1606445,0,0,0,0,0,0
2.469998,0.1320678,-0.2788098,0.1134375,0.1568817,0,0,0,0,0,0,0,0,0,1,0,0,0,0,0,0,0,-0.06616211,-0.9969482,-0.1887207,0,0,0,0,0,0
2.479998,0.1320678,-0.2788098,0.119838,0.1589688,0,0,0,0,0,0,0,0,0,1,0,0,0,0,0,0,0,-0.06945801,-0.9995117,-0.182373,0,0,0,0,0,0
2.489998,0.1204527,-0.2849734,0.1220696,0.126676,0,0,0,0,0,0,0,0,0,0,0,0,0,0,0,0,0,-0.05981445,-0.9853516,-0.1751709,0,0,0,0,0,0
2.499998,0.1216357,-0.2937057,0.1220696,0.126676,0,0,0,0,0,0,0,0,0,0,0,0,0,0,-0.001153396,-0.004382906,-0.0002306792,-0.07214355,-0.9907227,-0.1782227,0,0,0,0,0,0
2.509998,0.1216357,-0.2937057,0.1220696,0.126676,0,0,0,0,0,0,0,0,0,0,0,0,0,0,0,0,0,-0.06201172,-0.9912109,-0.168335,0,0,0,0,0,0
2.519998,0.1216357,-0.2937057,0.1220696,0.126676,0,0,0,0,0,0,0,0,0,0,0,0,0,0,0,0,0,-0.06567383,-0.9864502,-0.1672363,0,0,0,0,0,0
2.529998,0.1216357,-0.2937057,0.1220696,0.126676,0,0,0,0,0,0,0,0,0,0,0,0,0,0,-0.005497482,0,0.001499313,-0.07202148,-1.011841,-0.1414795,0,0,0,0,0,0
2.539998,0.1216357,-0.2937057,0.1220696,0.126676,0,0,0,0,0,0,0,0,0,0,0,0,0,0,0,0,0,-0.07397461,-1.002075,-0.1364746,0,0,0,0,0,0
2.549998,0.1216357,-0.2937057,0.1153048,0.1243483,0,0,0,0,0,0,0,0,0,0,0,0,0,0,0,0,0,-0.07873535,-1.000977,-0.1796875,0,0,0,0,0,0
2.559998,0.1216357,-0.2937057,0.1086776,0.121985,0,0,0,0,0,0,0,0,0,1,0,0,0,0,0,0,0,-0.005371094,-1.021118,-0.09936523,0,0,0,0,0,0
2.569998,0.1216357,-0.2937057,0.1045723,0.1268218,0,0,0,0,0,0,0,0,0,1,0,0,0,0,-0.01624388,-0.005248024,0.0004998118,-0.05834961,-0.9926758,-0.2004395,0,0,0,0,0,0
2.579998,0.1216357,-0.2937057,0.09826346,0.1244671,0,0,0,0,0,0,0,0,0,1,0,0,0,0,0,0,0,-0.05529785,-0.9881592,-0.2293701,0,0,0,0,0,0
2.589998,0.1216357,-0.2937057,0.09826346,0.1244671,0,0,0,0,0,0,0,0,0,1,0,0,0,0,0,0,0,-0.05822754,-0.996582,-0.2312012,0,0,0,0,0,0
2.599998,0.1216357,-0.2937057,0.09826346,0.1244671,0,0,0,0,0,0,0,0,0,1,0,0,0,0,0,0,0,-0.07080078,-0.9987793,-0.1755371,0,0,0,0,0,0
2.609998,0.1216357,-0.2937057,0.09826346,0.1244671,0,0,0,0,0,0,0,0,0,1,0,0,0,0,0,0,0,-0.06408691,-0.9912109,-0.1936035,0,0,0,0,0,0
2.619998,0.1216357,-0.2937057,0.09826346,0.1244671,0,0,0,0,0,0,0,0,0,1,0,0,0,0,0,0,0,-0.05419922,-1.004272,-0.1785889,0,0,0,0,0,0
2.629998,0.122782,-0.3024629,0.09826346,0.1244671,0,0,0,0,0,0,0,0,0,1,0,0,0,0,0,0,0,-0.05993652,-0.998291,-0.1816406,0,0,0,0,0,0
2.639998,0.122782,-0.3024629,0.09586462,0.1171679,0,0,0,0,0,0,0,0,0,1,0,0,0,0,0,0,0,-0.06774902,-1.009888,-0.197876,0,0,0,0,0,0
2.649998,0.122782,-0.3024629,0.08824687,0.09609103,0,0,0,0,0,0,0,0,0,1,0,0,0,0,0,0,0,-0.0690918,-1.004028,-0.1894531,0,0,0,0,0,0
2.659998,0.122782,-0.3024629,0.07646915,0.08002586,0,0,0,0,0,0,0,0,0,0,0,0,0,0,0.004613177,0.01337822,-0.00622779,-0.07470703,-1.008911,-0.1625977,0,0,0,0,0,0
2.669998,0.122782,-0.3024629,0.07066685,0.06738002,0,0,0,0,0,0,0,0,0,0,0,0,0,0,0,0,0,-0.07250977,-1.059082,-0.1057129,0,0,0,0,0,0
2.679998,0.122782,-0.3024629,0.05814747,0.05247455,0,0,0,0,0,0,0,0,0,0,0,0,0,0,0,0,0,-0.05090332,-1.04248,-0.1790771,0,0,0,0,0,0
2.689998,0.122782,-0.3024629,0.04521557,0.03825933,0,0,0,0,0,0,0,0,0,0,0,0,0,0,0,0,0,-0.0925293,-0.9713135,-0.1668701,0,0,0,0,0,0
2.699998,0.1163632,-0.3013508,0.0383198,0.02849421,0,0,0,0,0,0,0,0,0,0,0,0,0,0,0.002748741,0.001499313,-0.002998627,-0.06274414,-1.010864,-0.1954346,0,0,0,0,0,0
2.709998,0.1174414,-0.3101657,0.0383198,0.02849421,0,0,0,0,0,0,0,0,0,0,0,0,0,0,0,0,0,-0.07824707,-0.9978027,-0.1739502,0,0,0,0,0,0
2.719998,0.1110438,-0.3091218,0.03483805,0.02411865,0,0,0,0,0,0,0,0,0,0,0,0,0,0,-0.00224897,-0.002498855,-0.007996337,-0.07556152,-0.9815674,-0.1816406,0,0,0,0,0,0
2.729998,0.1110438,-0.3091218,0.03483805,0.02411865,0,0,0,0,0,0,0,0,0,0,0,0,0,0,0,0,0,-0.06420898,-0.9940186,-0.1834717,0,0,0,0,0,0
2.739998,0.1120535,-0.3179898,0.03136389,0.02010506,0,0,0,0,0,0,0,0,0,0,0,0,0,0,0,0,0,-0.05859375,-0.9810791,-0.1669922,0,0,0,0,0,0
2.749998,0.1066129,-0.3259307,0.03136389,0.02010506,0,0,0,0,0,0,0,0,0,0,0,0,0,0,-0.004747826,-0.0009995422,-0.004747826,-0.0645752,-0.9865723,-0.1695557,0,0,0,0,0,0
2.759998,0.1066129,-0.3259307,0.03136389,0.02010506,0,0,0,0,0,0,0,0,0,0,0,0,0,0,0,0,0,-0.0579834,-0.9990234,-0.1401367,0,0,0,0,0,0
2.769998,0.1066129,-0.3259307,0.03136389,0.02010506,0,0,0,0,0,0,0,0,0,0,0,0,0,0,0,0,0,-0.07971191,-0.9923096,-0.1600342,0,0,0,0,0,0
2.779998,0.1066129,-0.3259307,0.03136389,0.02010506,0,0,0,0,0,0,0,0,0,0,0,0,0,0,-0.01891403,0.00415186,0.003921201,-0.07373047,-0.9853516,-0.1816406,0,0,0,0,0,0
2.789998,0.1066129,-0.3259307,0.02448199,0.01654189,0,0,0,0,0,0,0,0,0,0,0,0,0,0,0,0,0,-0.05725098,-0.9786377,-0.1960449,0,0,0,0,0,0
2.799998,0.1066129,-0.3259307,0.02448199,0.01654189,0,0,0,0,0,0,0,0,0,1,0,0,0,0,0,0,0,0.002319336,-1.028442,-0.1791992,0,0,0,0,0,0
2.809998,0.1066129,-0.3259307,0.02448199,0.01654189,0,0,0,0,0,0,0,0,0,1,0,0,0,0,0,0,0,-0.08496094,-0.987915,-0.1791992,0,0,0,0,0,0
2.819998,0.1066129,-0.3259307,0.02448199,0.01654189,0,0,0,0,0,0,0,0,0,1,0,0,0,0,0,0,0,-0.05566406,-0.9907227,-0.2114258,0,0,0,0,0,0
2.829998,0.1066129,-0.3259307,0.02448199,0.01654189,0,0,0,0,0,0,0,0,0,1,0,0,0,0,0,0,0,-0.05822754,-0.9943848,-0.2067871,0,0,0,0,0,0
2.839998,0.1066129,-0.3259307,0.02448199,0.01654189,0,0,0,0,0,0,0,0,0,1,0,0,0,0,0,0,0,-0.06262207,-0.9868164,-0.1873779,0,0,0,0,0,0
2.849998,0.1066129,-0.3259307,0.02448199,0.01654189,0,0,0,0,0,0,0,0,0,1,0,0,0,0,0,0,0,-0.06115723,-0.9934082,-0.1960449,0,0,0,0,0,0
2.859998,0.1066129,-0.3259307,0.02448199,0.01654189,0,0,0,0,0,0,0,0,0,1,0,0,0,0,0,0,0,-0.06140137,-0.9979248,-0.1903076,0,0,0,0,0,0
2.869998,0.1066129,-0.3259307,0.02448199,0.01654189,0,0,0,0,0,0,0,0,0,1,0,0,0,0,0,0,0,-0.06958008,-0.9989014,-0.1826172,0,0,0,0,0,0
2.879998,0.1066129,-0.3259307,0.0172296,0.009778961,0,0,0,0,0,0,0,0,0,1,0,0,0,0,0,0,0,-0.06835938,-1.003418,-0.192627,0,0,0,0,0,0
2.889998,0.1066129,-0.3259307,0.02128552,0.01036987,0,0,0,0,0,0,0,0,0,0,0,0,0,0,0.01024531,0.007996337,0.00224897,-0.07666016,-1.007568,-0.1629639,0,0,0,0,0,0
2.899998,0.1066129,-0.3259307,0.01816093,0.007916301,0,0,0,0,0,0,0,0,0,0,0,0,0,0,0,0,0,-0.08752441,-1.039307,-0.08459473,0,0,0,0,0,0
2.909998,0.1066129,-0.3259307,0.01522274,0.0058549,0,0,0,0,0,0,0,0,0,0,0,0,0,0,0,0,0,-0.07897949,-1.022949,-0.1937256,0,0,0,0,0,0
2.919998,0.1066129,-0.3259307,0.02094085,0.006639781,0,0,0,0,0,0,0,0,0,0,0,0,0,0,0,0,0,-0.08679199,-0.9770508,-0.164917,0,0,0,0,0,0
2.929998,0.1066129,-0.3259307,0.02094085,0.006639781,0,0,0,0,0,0,0,0,0,0,0,0,0,0,0,0,0,-0.07263184,-1.021606,-0.1759033,0,0,0,0,0,0
2.939998,0.1066129,-0.3259307,0.01871517,0.005021143,0,0,0,0,0,0,0,0,0,0,0,0,0,0,-0.004613177,0.01037965,-0.009918332,-0.07324219,-0.9873047,-0.1740723,0,0,0,0,0,0
2.949998,0.1066129,-0.3259307,0.01871517,0.005021143,0,0,0,0,0,0,0,0,0,0,0,0,0,0,0,0,0,-0.06994629,-0.9990234,-0.1781006,0,0,0,0,0,0
2.959998,0.1066129,-0.3259307,0.01871517,0.005021143,0,0,0,0,0,0,0,0,0,0,0,0,0,0,-0.007996337,0.003748283,-0.005997253,-0.06726074,-0.9864502,-0.1932373,0,0,0,0,0,0
2.969998,0.1066129,-0.3259307,0.01871517,0.005021143,0,0,0,0,0,0,0,0,0,0,0,0,0,0,0,0,0,-0.0567627,-0.9844971,-0.19104,0,0,0,0,0,0
2.979998,0.1066129,-0.3259307,0.01871517,0.005021143,0,0,0,0,0,0,0,0,0,0,0,0,0,0,0,0,0,-0.05957031,-0.9793701,-0.1870117,0,0,0,0,0,0
2.989998,0.1066129,-0.3259307,0.01871517,0.005021143,0,0,0,0,0,0,0,0,0,0,0,0,0,0,-0.002537472,-0.00322951,-0.0004613585,-0.06201172,-0.9820557,-0.1881104,0,0,0,0,0,0
2.999998,0.1066129,-0.3259307,0.01871517,0.005021143,0,0,0,0,0,0,0,0,0,0,0,0,0,0,0,0,0,-0.05700684,-0.9836426,-0.175415,0,0,0,0,0,0
3.009998,0.1066129,-0.3259307,0.01679136,0.003685909,0,0,0,0,0,0,0,0,0,0,0,0,0,0,0,0,0,-0.05761719,-0.9813232,-0.1794434,0,0,0,0,0,0
3.019998,0.1066129,-0.3259307,0.01679136,0.003685909,0,0,0,0,0,0,0,0,0,0,0,0,0,0,-0.0006919767,-0.00415186,0.002998566,-0.05773926,-0.9903564,-0.182251,0,0,0,0,0,0
3.029998,0.1066129,-0.3259307,0.01679136,0.003685909,0,0,0,0,0,0,0,0,0,0,0,0,0,0,0,0,0,-0.0579834,-0.9881592,-0.1728516,0,0,0,0,0,0
3.039998,0.1066129,-0.3259307,0.01679136,0.003685909,0,0,0,0,0,0,0,0,0,0,0,0,0,0,0,0,0,-0.06103516,-0.9936523,-0.1743164,0,0,0,0,0,0
3.049998,0.1056715,-0.3170144,0.01520453,0.002595896,0,0,0,0,0,0,0,0,0,0,0,0,0,0,-0.0007496566,-0.00224897,0.009495651,-0.05786133,-1.000488,-0.1730957,0,0,0,0,0,0
3.059998,0.1110438,-0.3091218,0.01398521,0.001705513,0,0,0,0,0,0,0,0,0,0,0,0,0,0,0,0,0,-0.05627441,-1.000977,-0.1727295,0,0,0,0,0,0
3.069998,0.1141003,-0.283788,0.003460207,0,0,0,0,0,0,0,0,0,0,0,0,0,0,0,0,0,0,-0.06262207,-1.003662,-0.1733398,0,0,0,0,0,0
3.079998,0.1129126,-0.2750434,0,0,0,0,0,0,0,0,0,0,0,0,0,0,0,0,0,0,0,-0.05871582,-0.9976807,-0.177124,0,0,0,0,0,0
3.089998,0.1063385,-0.2317635,0,0,0,0,0,0,0,0,0,0,0,0,0,0,0,0,0,0,0,-0.06298828,-0.9923096,-0.1787109,0,0,0,0,0,0
3.099998,0.09851561,-0.1894531,0,0,0,0,0,0,0,0,0,0,0,0,0,0,0,0,-0.004248055,0.0002498855,0.006247139,-0.06921387,-0.9910889,-0.1883545,0,0,0,0,0,0
3.109998,0.09901215,-0.1666302,0,0,0,0,0,0,0,0,0,0,0,0,0,0,0,0,0,0,0,-0.06689453,-0.9837646,-0.1871338,0,0,0,0,0,0
3.119998,0.09890108,-0.1449016,0,0,0,0,0,0,0,0,0,0,0,0,0,0,0,0,0,0,0,-0.06970215,-0.993042,-0.1972656,0,0,0,0,0,0
3.129997,0.09210785,-0.1220964,0,0,0,0,0,0,0,0,0,0,0,0,0,0,0,0,-0.001383953,-0.0009226355,0.003459883,-0.06872559,-1.001221,-0.1975098,0,0,0,0,0,0
3.139997,0.09586462,-0.1171679,0,0,0,0,0,0,0,0,0,0,0,0,0,0,0,0,0,0,0,-0.06591797,-0.9991455,-0.1905518,0,0,0,0,0,0
3.149997,0.0972489,-0.1055254,0,0,0,0,0,0,0,0,0,0,0,0,0,0,0,0,0,0,0,-0.06115723,-1.004272,-0.1947021,0,0,0,0,0,0
3.159997,0.1012833,-0.1012833,0,0,0,0,0,0,0,0,0,0,0,0,0,0,0,0,0,0,0,-0.06103516,-1.001343,-0.1938477,0,0,0,0,0,0
3.169997,0.09342706,-0.08198702,0,0,0,0,0,0,0,0,0,0,0,0,0,0,0,0,0,0,0,-0.06628418,-0.9929199,-0.1904297,0,0,0,0,0,0
3.179997,0.09511333,-0.07273372,0,0,0,0,0,0,0,0,0,0,0,0,0,0,0,0,0,0,0,-0.06726074,-0.9945068,-0.1890869,0,0,0,0,0,0
3.189997,0.08979177,-0.0616218,0,0,0,0,0,0,0,0,0,0,0,0,0,0,0,0,0,0,0,-0.07324219,-0.9942627,-0.1887207,0,0,0,0,0,0
3.199997,0.09219412,-0.05392486,0,0,0,0,0,0,0,0,0,0,0,0,0,0,0,0,0,0,0,-0.07336426,-0.9898682,-0.1905518,0,0,0,0,0,0
3.209997,0.1034926,-0.04902282,0.004560402,-0.005654898,0,0,0,0,0,0,0,0,0,0,0,0,0,0,-0.001249428,-0.004997711,0.005997253,-0.07055664,-0.9916992,-0.1915283,0,0,0,0,0,0
3.219997,0.1097174,-0.04649042,0.0009635704,-0.001298725,0,0,0,0,0,0,0,0,0,0,0,0,0,0,0,0,0,-0.06872559,-0.9886475,-0.1898193,0,0,0,0,0,0
3.229997,0.1145706,-0.03944235,0.006092445,-0.01015407,0,0,0,0,0,0,0,0,0,0,0,0,0,0,0,0,0,-0.06811523,-0.9908447,-0.1881104,0,0,0,0,0,0
3.239997,0.1217032,-0.03670416,0.007046003,-0.01372116,0,0,0,0,0,0,0,0,0,0,0,0,0,0,0,0,0,-0.0703125,-0.9919434,-0.1853027,0,0,0,0,0,0
3.249997,0.1291566,-0.03377942,0.01036987,-0.02128552,0,0,0,0,0,0,0,0,0,0,0,0,0,0,0,0,0,-0.07434082,-0.9931641,-0.1813965,0,0,0,0,0,0
3.259997,0.1358722,-0.02636326,0.01084049,-0.02614471,0,0,0,0,0,0,0,0,0,0,0,0,0,0,0,0,0,-0.07287598,-0.99646,-0.1799316,0,0,0,0,0,0
3.269997,0.1440692,-0.02296755,0.01107965,-0.03176167,0,0,0,0,0,0,0,0,0,0,0,0,0,0,0,0,0,-0.06750488,-0.9923096,-0.1799316,0,0,0,0,0,0
3.279997,0.161649,-0.01992933,0.01099935,-0.03807466,0,0,0,0,0,0,0,0,0,0,0,0,0,0,0,0,0,-0.07666016,-0.9935303,-0.1850586,0,0,0,0,0,0
3.289997,0.1699411,-0.0113294,0.01053481,-0.04501235,0,0,0,0,0,0,0,0,0,0,0,0,0,0,0,-0.001499313,0.008496109,-0.07409668,-0.9921875,-0.1881104,0,0,0,0,0,0
3.299997,0.1789112,-0.006970565,0.009642811,-0.05249975,0,0,0,0,0,0,0,0,0,0,0,0,0,0,0,0,0,-0.07446289,-0.9938965,-0.1872559,0,0,0,0,0,0
3.309997,0.1789112,-0.006970565,0.005849564,-0.05966556,0,0,0,0,0,0,0,0,0,0,0,0,0,0,0,0,0,-0.07385254,-0.9901123,-0.1882324,0,0,0,0,0,0
3.319997,0.1880188,-0.002379984,0.001284569,-0.06808215,0,0,0,0,0,0,0,0,0,0,0,0,0,0,-0.002249153,-0.002748965,-0.0009996236,-0.07067871,-0.9963379,-0.1895752,0,0,0,0,0,0
3.329997,0.1880046,0,-0.004229449,-0.0775399,0,0,0,0,0,0,0,0,0,0,0,0,0,0,0,0,0,-0.07397461,-0.9968262,-0.1915283,0,0,0,0,0,0
3.339997,0.1973528,0.007309361,-0.007091154,-0.0780027,0,0,0,0,0,0,0,0,0,0,0,0,0,0,0,0,0,-0.07165527,-0.9967041,-0.1923828,0,0,0,0,0,0
3.349997,0.1973528,0.007309361,-0.01078504,-0.08782104,0,0,0,0,0,0,0,0,0,0,0,0,0,0,0,0,0,-0.07409668,-0.9993896,-0.1928711,0,0,0,0,0,0
3.359997,0.1975671,0.0121955,-0.01078504,-0.08782104,0,0,0,0,0,0,0,0,0,0,0,0,0,0,0,0,0,-0.078125,-1.000854,-0.1898193,0,0,0,0,0,0
3.369997,0.1975671,0.0121955,-0.01078504,-0.08782104,0,0,0,0,0,0,0,0,0,0,0,0,0,0,0.001749199,-0.002998627,0.001749199,-0.08166504,-1.000854,-0.1866455,0,0,0,0,0,0
3.379997,0.1978872,0.01710136,-0.01078504,-0.08782104,0,0,0,0,0,0,0,0,0,0,0,0,0,0,0,0,0,-0.07897949,-1.002319,-0.1835938,0,0,0,0,0,0
3.389997,0.1978872,0.01710136,-0.01078504,-0.08782104,0,0,0,0,0,0,0,0,0,0,0,0,0,0,0,0,0,-0.07775879,-1.005493,-0.1850586,0,0,0,0,0,0
3.399997,0.1978872,0.01710136,-0.01078504,-0.08782104,0,0,0,0,0,0,0,0,0,0,0,0,0,0,0,0,0,-0.07531738,-1.003418,-0.1864014,0,0,0,0,0,0
3.409997,0.1978872,0.01710136,-0.01078504,-0.08782104,0,0,0,0,0,0,0,0,0,0,0,0,0,0,0,0,0,-0.07910156,-0.9996338,-0.185791,0,0,0,0,0,0
3.419997,0.1978872,0.01710136,-0.01078504,-0.08782104,0,0,0,0,0,0,0,0,0,0,0,0,0,0,0,0,0,-0.07312012,-1,-0.1879883,0,0,0,0,0,0
3.429997,0.1978872,0.01710136,-0.01078504,-0.08782104,0,0,0,0,0,0,0,0,0,0,0,0,0,0,-0.003998169,0,-0.003998169,-0.07702637,-0.9940186,-0.1871338,0,0,0,0,0,0
3.439997,0.1983112,0.02203458,-0.01078504,-0.08782104,0,0,0,0,0,0,0,0,0,0,0,0,0,0,0,0,0,-0.07421875,-0.9929199,-0.1848145,0,0,0,0,0,0
3.449997,0.1983112,0.02203458,-0.00764739,-0.08718024,0,0,0,0,0,0,0,0,0,0,0,0,0,0,0,0,0,-0.07202148,-0.9925537,-0.1914063,0,0,0,0,0,0
3.459997,0.1983112,0.02203458,-0.00764739,-0.08718024,0,0,0,0,0,0,0,0,0,0,0,0,0,0,-0.005536302,-0.0002306792,-0.004613584,-0.07287598,-0.9942627,-0.1900635,0,0,0,0,0,0
3.469997,0.1983112,0.02203458,-0.004229449,-0.0775399,0,0,0,0,0,0,0,0,0,0,0,0,0,0,0,0,0,-0.07434082,-0.9941406,-0.1872559,0,0,0,0,0,0
3.479997,0.1988369,0.02700255,-0.003867893,-0.06833278,0,0,0,0,0,0,0,0,0,0,0,0,0,0,0,0,0,-0.07043457,-0.9929199,-0.1877441,0,0,0,0,0,0
3.489997,0.1988369,0.02700255,0,-0.05882353,0,0,0,0,0,0,0,0,0,0,0,0,0,0,0,-0.001499313,-0.0004997711,-0.06982422,-0.9916992,-0.1890869,0,0,0,0,0,0
3.499997,0.1988369,0.02700255,0.001012919,-0.04963304,0,0,0,0,0,0,0,0,0,0,0,0,0,0,0,0,0,-0.07141113,-0.9936523,-0.1883545,0,0,0,0,0,0
3.509997,0.1911022,0.03628522,0.002599627,-0.04072749,0,0,0,0,0,0,0,0,0,0,0,0,0,0,0,0,0,-0.06665039,-0.9891357,-0.1895752,0,0,0,0,0,0
3.519997,0.1596847,0.05172886,0.002599627,-0.04072749,0,0,0,0,0,0,0,0,0,0,0,0,0,0,0.004997711,-0.00224897,0.00224897,-0.06359863,-0.9866943,-0.1896973,0,0,0,0,0,0
3.529997,0.1369147,0.05687224,0.002599627,-0.04072749,0,0,0,0,0,0,0,0,0,0,0,0,0,0,0,0,0,-0.06665039,-0.9914551,-0.1900635,0,0,0,0,0,0
3.539997,0.1323179,0.0651088,0.002599627,-0.04072749,0,0,0,0,0,0,0,0,0,0,0,0,0,0,0,0,0,-0.07885742,-0.9957275,-0.1834717,0,0,0,0,0,0
3.549997,0.1241093,0.06307194,0.004399924,-0.04135928,0,0,0,0,0,0,0,0,0,0,0,0,0,0,0,0,0,-0.08422852,-0.9989014,-0.1872559,0,0,0,0,0,0
3.559997,0.1241093,0.06307194,0.004399924,-0.04135928,0,0,0,0,0,0,0,0,0,0,0,0,0,0,0,0,0,-0.07177734,-0.9945068,-0.1900635,0,0,0,0,0,0
3.569997,0.1241093,0.06307194,0.004399924,-0.04135928,0,0,0,0,0,0,0,0,0,0,0,0,0,0,0,0,0,-0.06933594,-0.9907227,-0.1834717,0,0,0,0,0,0
3.579997,0.1241093,0.06307194,0.004399924,-0.04135928,0,0,0,0,0,0,0,0,0,0,0,0,0,0,0,0,0,-0.07324219,-0.9932861,-0.1766357,0,0,0,0,0,0
3.589997,0.1241093,0.06307194,0.004399924,-0.04135928,0,0,0,0,0,0,0,0,0,0,0,0,0,0,0,0,0,-0.0769043,-0.9991455,-0.1809082,0,0,0,0,0,0
3.599997,0.1241093,0.06307194,0.004399924,-0.04135928,0,0,0,0,0,0,0,0,0,0,0,0,0,0,0.001249428,-0.00224897,-0.001249428,-0.07434082,-0.9998779,-0.1787109,0,0,0,0,0,0
3.609997,0.1241093,0.06307194,0.004399924,-0.04135928,0,0,0,0,0,0,0,0,0,0,0,0,0,0,0,0,0,-0.07580566,-0.9968262,-0.1835938,0,0,0,0,0,0
3.619997,0.1241093,0.06307194,0.004399924,-0.04135928,0,0,0,0,0,0,0,0,0,0,0,0,0,0,0,0,0,-0.07800293,-0.989624,-0.1837158,0,0,0,0,0,0
3.629997,0.1241093,0.06307194,0.004399924,-0.04135928,0,0,0,0,0,0,0,0,0,0,0,0,0,0,0,0,0,-0.07629395,-0.9831543,-0.1854248,0,0,0,0,0,0
3.639997,0.1262167,0.06828115,0.004399924,-0.04135928,0,0,0,0,0,0,0,0,0,0,0,0,0,0,0,0,0,-0.07739258,-0.9832764,-0.1868896,0,0,0,0,0,0
3.649997,0.1262167,0.06828115,0.004399924,-0.04135928,0,0,0,0,0,0,0,0,0,0,0,0,0,0,0,0,0,-0.07543945,-0.9794922,-0.1896973,0,0,0,0,0,0
3.659997,0.1262167,0.06828115,0.004399924,-0.04135928,0,0,0,0,0,0,0,0,0,0,0,0,0,0,0,0,0,-0.07006836,-0.9786377,-0.1928711,0,0,0,0,0,0
3.669997,0.1343342,0.07036556,0.004399924,-0.04135928,0,0,0,0,0,0,0,0,0,0,0,0,0,0,0,0,0,-0.06604004,-0.9854736,-0.1867676,0,0,0,0,0,0
3.679997,0.1363944,0.07577466,0.002599627,-0.04072749,0,0,0,0,0,0,0,0,0,0,0,0,0,0,0.003690868,-0.0006920377,-0.003690868,-0.07055664,-0.9969482,-0.1849365,0,0,0,0,0,0
3.689997,0.1363944,0.07577466,0.004399924,-0.04135928,0,0,0,0,0,0,0,0,0,0,0,0,0,0,0,0,0,-0.06921387,-1.003296,-0.1826172,0,0,0,0,0,0
3.699997,0.1445074,0.07781168,0.004399924,-0.04135928,0,0,0,0,0,0,0,0,0,0,0,0,0,0,0,0,0,-0.06835938,-1.011475,-0.182373,0,0,0,0,0,0
3.709997,0.1445074,0.07781168,0.004399924,-0.04135928,0,0,0,0,0,0,0,0,0,0,0,0,0,0,-0.00224897,-0.001499313,0.00224897,-0.06872559,-1.014404,-0.1826172,0,0,0,0,0,0
3.719997,0.1526974,0.07976729,0.004399924,-0.04135928,0,0,0,0,0,0,0,0,0,0,0,0,0,0,0,0,0,-0.07055664,-1.011475,-0.1834717,0,0,0,0,0,0
3.729997,0.1628173,0.08730785,0.004399924,-0.04135928,0,0,0,0,0,0,0,0,0,0,0,0,0,0,0,0,0,-0.07568359,-1.016113,-0.1815186,0,0,0,0,0,0
3.739997,0.1628173,0.08730785,0.004399924,-0.04135928,0,0,0,0,0,0,0,0,0,0,0,0,0,0,-0.003998169,-0.002498855,0.003748283,-0.06774902,-1.011108,-0.1859131,0,0,0,0,0,0
3.749997,0.1609578,0.08164528,0.004399924,-0.04135928,0,0,0,0,0,0,0,0,0,0,0,0,0,0,0,0,0,-0.06713867,-1.003174,-0.1867676,0,0,0,0,0,0
3.759997,0.1710709,0.08914962,0.004399924,-0.04135928,0,0,0,0,0,0,0,0,0,0,0,0,0,0,0,0,0,-0.07080078,-0.9959717,-0.1855469,0,0,0,0,0,0
3.769997,0.1692829,0.08344931,0.004399924,-0.04135928,0,0,0,0,0,0,0,0,0,0,0,0,0,0,-0.004747826,-0.001499313,0.001499313,-0.07324219,-0.989502,-0.1868896,0,0,0,0,0,0
3.779997,0.1793871,0.09092221,0.004399924,-0.04135928,0,0,0,0,0,0,0,0,0,0,0,0,0,0,0,0,0,-0.07128906,-0.984375,-0.1867676,0,0,0,0,0,0
3.789997,0.1776673,0.08518293,0.002599627,-0.04072749,0,0,0,0,0,0,0,0,0,0,0,0,0,0,0,0,0,-0.07092285,-0.9868164,-0.1861572,0,0,0,0,0,0
3.799997,0.1861061,0.0868495,0.002599627,-0.04072749,0,0,0,0,0,0,0,0,0,0,0,0,0,0,-0.004248055,-0.001499313,0.003498398,-0.07189941,-0.9848633,-0.1862793,0,0,0,0,0,0
3.809997,0.1961879,0.09427213,0.0008597663,-0.04040901,0,0,0,0,0,0,0,0,0,0,0,0,0,0,0,0,0,-0.0715332,-0.9844971,-0.1845703,0,0,0,0,0,0
3.819997,0.1961879,0.09427213,-0.002599627,-0.04072749,0,0,0,0,0,0,0,0,0,0,0,0,0,0,0,0,0,-0.07556152,-0.9892578,-0.1853027,0,0,0,0,0,0
3.829997,0.2062366,0.101813,-0.006299159,-0.04229435,0,0,0,0,0,0,0,0,0,0,0,0,0,0,0,0,0,-0.07617188,-0.9857178,-0.1851807,0,0,0,0,0,0
3.839997,0.2147021,0.1033751,-0.008333266,-0.04351817,0,0,0,0,0,0,0,0,0,0,0,0,0,0,0,0,0,-0.07653809,-0.9904785,-0.1860352,0,0,0,0,0,0
3.849997,0.2232122,0.1048828,-0.01053481,-0.04501235,0,0,0,0,0,0,0,0,0,0,0,0,0,0,0,0,0,-0.07373047,-0.987915,-0.1868896,0,0,0,0,0,0
3.859997,0.2247102,0.1110014,-0.01840736,-0.05089094,0,0,0,0,0,0,0,0,0,0,0,0,0,0,0.002998627,-0.0002498855,0.0002498855,-0.07019043,-0.9858398,-0.1894531,0,0,0,0,0,0
3.869997,0.2332107,0.1124899,-0.02489639,-0.05572049,0,0,0,0,0,0,0,0,0,0,0,0,0,0,0,0,0,-0.07019043,-0.9873047,-0.1889648,0,0,0,0,0,0
3.879997,0.234689,0.118725,-0.03246737,-0.06103866,0,0,0,0,0,0,0,0,0,0,0,0,0,0,0,0,0,-0.07177734,-0.9849854,-0.190918,0,0,0,0,0,0
3.889997,0.2446398,0.1265378,-0.0411287,-0.06665685,0,0,0,0,0,0,0,0,0,0,0,0,0,0,0.006996796,0.0002498855,0.002748741,-0.07739258,-0.9931641,-0.1846924,0,0,0,0,0,0
3.899997,0.2461216,0.1329622,-0.04585813,-0.06952684,0,0,0,0,0,0,0,0,0,0,0,0,0,0,0,0,0,-0.07568359,-1.001709,-0.1844482,0,0,0,0,0,0
3.909997,0.2476239,0.1394663,-0.04585813,-0.06952684,0,0,0,0,0,0,0,0,0,0,0,0,0,0,0,0,0,-0.07946777,-1.009155,-0.1875,0,0,0,0,0,0
3.919997,0.2560216,0.1409557,-0.04585813,-0.06952684,0,0,0,0,0,0,0,0,0,0,0,0,0,0,0.00224897,-0.002748741,0.004747826,-0.07800293,-1.008545,-0.18396,0,0,0,0,0,0
3.929997,0.2560216,0.1409557,-0.04585813,-0.06952684,0,0,0,0,0,0,0,0,0,0,0,0,0,0,0,0,0,-0.07897949,-1.005005,-0.1843262,0,0,0,0,0,0
3.939997,0.2658957,0.1490185,-0.04585813,-0.06952684,0,0,0,0,0,0,0,0,0,0,0,0,0,0,0,0,0,-0.07702637,-1.000122,-0.1818848,0,0,0,0,0,0
3.949997,0.2658957,0.1490185,-0.04585813,-0.06952684,0,0,0,0,0,0,0,0,0,0,0,0,0,0,-0.001999084,-0.001249428,0.002998627,-0.07824707,-0.9980469,-0.1813965,0,0,0,0,0,0
3.959997,0.2743341,0.1504413,-0.04585813,-0.06952684,0,0,0,0,0,0,0,0,0,0,0,0,0,0,0,0,0,-0.07788086,-0.9956055,-0.1833496,0,0,0,0,0,0
3.969997,0.2743341,0.1504413,-0.04585813,-0.06952684,0,0,0,0,0,0,0,0,0,0,0,0,0,0,0,0,0,-0.07751465,-0.9910889,-0.18396,0,0,0,0,0,0
3.979997,0.2743341,0.1504413,-0.04585813,-0.06952684,0,0,0,0,0,0,0,0,0,0,0,0,0,0,-0.004382519,-0.0004613178,-0.0006919767,-0.07897949,-0.9920654,-0.1851807,0,0,0,0,0,0
3.989997,0.2828107,0.1518247,-0.04585813,-0.06952684,0,0,0,0,0,0,0,0,0,0,0,0,0,0,-0.006497024,-0.001499313,-0.002748741,-0.0723877,-0.987793,-0.1879883,0,0,0,0,0,0
3.999997,0.2841832,0.1585443,-0.04585813,-0.06952684,0,0,0,0,0,0,0,0,0,0,0,0,0,0,0,0,0,-0.0769043,-0.9897461,-0.1848145,0,0,0,0,0,0
4.009997,0.2926585,0.1599062,-0.04585813,-0.06952684,0,0,0,0,0,0,0,0,0,0,0,0,0,0,0,0,0,-0.07189941,-0.9904785,-0.1862793,0,0,0,0,0,0
4.019997,0.2926585,0.1599062,-0.04585813,-0.06952684,0,0,0,0,0,0,0,0,0,0,0,0,0,0,-0.004747826,-0.002998627,-0.003748283,-0.07470703,-0.9962158,-0.1824951,0,0,0,0,0,0
4.029997,0.2926585,0.1599062,-0.04585813,-0.06952684,0,0,0,0,0,0,0,0,0,0,0,0,0,0,0,0,0,-0.07324219,-0.9998779,-0.1820068,0,0,0,0,0,0
4.039998,0.3011687,0.1612318,-0.04585813,-0.06952684,0,0,0,0,0,0,0,0,0,0,0,0,0,0,0,0,0,-0.07653809,-1.00061,-0.1820068,0,0,0,0,0,0
4.049998,0.3011687,0.1612318,-0.04585813,-0.06952684,0,0,0,0,0,0,0,0,0,0,0,0,0,0,-0.005747368,-0.001999084,-0.002748741,-0.07299805,-0.9943848,-0.1885986,0,0,0,0,0,0
4.059998,0.3011687,0.1612318,-0.04585813,-0.06952684,0,0,0,0,0,0,0,0,0,0,0,0,0,0,0,0,0,-0.07507324,-0.993042,-0.1899414,0,0,0,0,0,0
4.069998,0.3024843,0.1680469,-0.04585813,-0.06952684,0,0,0,0,0,0,0,0,0,0,0,0,0,0,0,0,0,-0.07556152,-0.9943848,-0.1905518,0,0,0,0,0,0
4.079998,0.3024843,0.1680469,-0.04585813,-0.06952684,0,0,0,0,0,0,0,0,0,0,0,0,0,0,-0.001999084,-0.0002498855,-0.002998627,-0.07348633,-0.9962158,-0.1964111,0,0,0,0,0,0
4.089999,0.3024843,0.1680469,-0.04585813,-0.06952684,0,0,0,0,0,0,0,0,0,0,0,0,0,0,0,0,0,-0.07861328,-0.9953613,-0.1912842,0,0,0,0,0,0
4.099999,0.3024843,0.1680469,-0.04585813,-0.06952684,0,0,0,0,0,0,0,0,0,0,0,0,0,0,0,0,0,-0.07495117,-0.9945068,-0.1898193,0,0,0,0,0,0
4.109999,0.3024843,0.1680469,-0.04585813,-0.06952684,0,0,0,0,0,0,0,0,0,0,0,0,0,0,-0.004152226,-0.000922717,0.0004613585,-0.07092285,-0.9882813,-0.1784668,0,0,0,0,0,0
4.119999,0.3024843,0.1680469,-0.04585813,-0.06952684,0,0,0,0,0,0,0,0,0,0,0,0,0,0,0,0,0,-0.07287598,-0.991333,-0.1744385,0,0,0,0,0,0
4.13,0.3024843,0.1680469,-0.04585813,-0.06952684,0,0,0,0,0,0,0,0,0,0,0,0,0,0,0,0,0,-0.07080078,-0.9830322,-0.1885986,0,0,0,0,0,0
4.14,0.3024843,0.1680469,-0.04585813,-0.06952684,0,0,0,0,0,0,0,0,1,0,0,0,0,0,-0.01074508,-0.006996796,-0.0007496566,-0.140625,-0.9605713,-0.1496582,0,0,0,0,0,0
4.15,0.3024843,0.1680469,-0.04585813,-0.06952684,0,0,0,0,0,0,0,0,1,0,0,0,0,0,0,0,0,-0.0345459,-1.002319,-0.1751709,0,0,0,0,0,0
4.16,0.3109933,0.1693528,-0.04585813,-0.06952684,0,0,0,0,0,0,0,0,1,0,0,0,0,0,0,0,0,-0.07128906,-1.011841,-0.1888428,0,0,0,0,0,0
4.170001,0.3207976,0.1775288,-0.04585813,-0.06952684,0,0,0,0,0,0,0,0,1,0,0,0,0,0,-0.01749199,0.0002498855,-0.001249428,-0.08227539,-1.012207,-0.1898193,0,0,0,0,0,0
4.180001,0.3207976,0.1775288,-0.04585813,-0.06952684,0,0,0,0,0,0,0,0,1,0,0,0,0,0,0,0,0,-0.06835938,-1.005005,-0.1920166,0,0,0,0,0,0
4.190001,0.3305825,0.1857559,-0.04585813,-0.06952684,0,0,0,0,0,0,0,0,1,0,0,0,0,0,0,0,0,-0.08911133,-1.003418,-0.2194824,0,0,0,0,0,0
4.200001,0.3318396,0.192783,-0.04585813,-0.06952684,0,0,0,0,0,0,0,0,1,0,0,0,0,0,-0.009495651,0.006996796,0.00224897,-0.08569336,-0.9914551,-0.2120361,0,0,0,0,0,0
4.210001,0.3318396,0.192783,-0.04585813,-0.06952684,0,0,0,0,0,0,0,0,1,0,0,0,0,0,0,0,0,-0.07702637,-0.9942627,-0.2149658,0,0,0,0,0,0
4.220002,0.3318396,0.192783,-0.04585813,-0.06952684,0,0,0,0,0,0,0,0,1,0,0,0,0,0,0,0,0,-0.0826416,-0.9912109,-0.2186279,0,0,0,0,0,0
4.230002,0.3233618,0.1915055,-0.04585813,-0.06952684,0,0,0,0,0,0,0,0,1,0,0,0,0,0,0.0009995422,-0.004747826,-0.002748741,-0.08203125,-0.9910889,-0.2037354,0,0,0,0,0,0
4.240002,0.3149169,0.1901973,-0.04585813,-0.06952684,0,0,0,0,0,0,0,0,1,0,0,0,0,0,0,0,0,-0.07751465,-0.9935303,-0.2044678,0,0,0,0,0,0
4.250002,0.303814,0.1749232,-0.04585813,-0.06952684,0,0,0,0,0,0,0,0,1,0,0,0,0,0,0,0,0,-0.07080078,-0.9903564,-0.199707,0,0,0,0,0,0
4.260003,0.2940095,0.1667064,-0.04585813,-0.06952684,0,0,0,0,0,0,0,0,1,0,0,0,0,0,0.002767907,-0.01084097,0.002998566,-0.06787109,-0.9803467,-0.1928711,0,0,0,0,0,0
4.270003,0.2841832,0.1585443,-0.04585813,-0.06952684,0,0,0,0,0,0,0,0,1,0,0,0,0,0,0,0,0,-0.06872559,-0.9874268,-0.1911621,0,0,0,0,0,0
4.280003,0.2729402,0.1438072,-0.04585813,-0.06952684,0,0,0,0,0,0,0,0,0,0,0,0,0,0,0,0,0,-0.06726074,-0.9807129,-0.1768799,0,0,0,0,0,0
4.290003,0.2729402,0.1438072,-0.04585813,-0.06952684,0,0,0,0,0,0,0,0,0,0,0,0,0,0,0.00224897,-0.007996337,0.003998169,-0.02160645,-0.9581299,-0.2683105,0,0,0,0,0,0
4.300004,0.2729402,0.1438072,-0.04585813,-0.06952684,0,0,0,0,0,0,0,0,0,0,0,0,0,0,0,0,0,-0.1142578,-0.9814453,-0.177124,0,0,0,0,0,0
4.310004,0.2630458,0.1358588,-0.04585813,-0.06952684,0,0,0,0,0,0,0,0,0,0,0,0,0,0,0,0,0,-0.06164551,-0.9769287,-0.1811523,0,0,0,0,0,0
4.320004,0.2630458,0.1358588,-0.05084377,-0.07241385,0,0,0,0,0,0,0,0,0,0,0,0,0,0,0.00674691,-0.001749199,-0.001999084,-0.07763672,-0.9892578,-0.1843262,0,0,0,0,0,0
4.330004,0.2630458,0.1358588,-0.05084377,-0.07241385,0,0,0,0,0,0,0,0,0,0,0,0,0,0,0,0,0,-0.07324219,-1.006226,-0.1838379,0,0,0,0,0,0
4.340004,0.2630458,0.1358588,-0.05607645,-0.07530265,0,0,0,0,0,0,0,0,0,0,0,0,0,0,0,0,0,-0.07275391,-1.001221,-0.1651611,0,0,0,0,0,0
4.350005,0.2630458,0.1358588,-0.05607645,-0.07530265,0,0,0,0,0,0,0,0,0,0,0,0,0,0,-0.001999084,-0.005497482,0.00224897,-0.07373047,-1.003052,-0.1810303,0,0,0,0,0,0
4.360005,0.2630458,0.1358588,-0.05607645,-0.07530265,0,0,0,0,0,0,0,0,0,0,0,0,0,0,0,0,0,-0.0703125,-1.006348,-0.1691895,0,0,0,0,0,0
4.370005,0.2630458,0.1358588,-0.05607645,-0.07530265,0,0,0,0,0,0,0,0,0,0,0,0,0,0,0,0,0,-0.07226563,-0.9968262,-0.1745605,0,0,0,0,0,0
4.380005,0.2630458,0.1358588,-0.06154599,-0.07818004,0,0,0,0,0,0,0,0,0,0,0,0,0,0,-0.00674691,-0.00449794,0.002498855,-0.07299805,-0.9993896,-0.1875,0,0,0,0,0,0
4.390006,0.2630458,0.1358588,-0.06154599,-0.07818004,0,0,0,0,0,0,0,0,0,0,0,0,0,0,0,0,0,-0.06799316,-0.9909668,-0.1743164,0,0,0,0,0,0
4.400006,0.2630458,0.1358588,-0.06154599,-0.07818004,0,0,0,0,0,0,0,0,0,0,0,0,0,0,0,0,0,-0.07116699,-0.9888916,-0.1885986,0,0,0,0,0,0
4.410006,0.2630458,0.1358588,-0.06724153,-0.08103468,0,0,0,0,0,0,0,0,0,0,0,0,0,0,-0.006689108,0.002998566,0.001383953,-0.1022949,-0.9676514,-0.2609863,0,0,0,0,0,0
4.420006,0.2630458,0.1358588,-0.06724153,-0.08103468,0,0,0,0,0,0,0,0,1,0,0,0,0,0,0,0,0,-0.1237793,-0.9698486,-0.2070313,0,0,0,0,0,0
4.430007,0.2630458,0.1358588,-0.07315177,-0.0838569,0,0,0,0,0,0,0,0,1,0,0,0,0,0,0,0,0,-0.08959961,-0.9831543,-0.1887207,0,0,0,0,0,0
4.440007,0.2715658,0.1372429,-0.07926521,-0.08663872,0,0,0,0,0,0,0,0,1,0,0,0,0,0,-0.007246681,-0.002748741,0.001249428,-0.07299805,-0.9737549,-0.2073975,0,0,0,0,0,0
4.450007,0.2715658,0.1372429,-0.08557043,-0.08937357,0,0,0,0,0,0,0,0,1,0,0,0,0,0,0,0,0,-0.07714844,-0.9804688,-0.2070313,0,0,0,0,0,0
4.460007,0.2715658,0.1372429,-0.09205613,-0.09205613,0,0,0,0,0,0,0,0,1,0,0,0,0,0,0,0,0,-0.0736084,-0.9840088,-0.1959229,0,0,0,0,0,0
4.470007,0.2715658,0.1372429,-0.1055254,-0.0972489,0,0,0,0,0,0,0,0,1,0,0,0,0,0,0.0009996236,-0.002748965,0.002499059,-0.07556152,-0.9810791,-0.1981201,0,0,0,0,0,0
4.480008,0.2715658,0.1372429,-0.1124882,-0.09975371,0,0,0,0,0,0,0,0,1,0,0,0,0,0,0,0,0,-0.0826416,-0.9854736,-0.2021484,0,0,0,0,0,0
4.490008,0.2715658,0.1372429,-0.1195901,-0.1021952,0,0,0,0,0,0,0,0,1,0,0,0,0,0,0,0,0,-0.07214355,-0.9866943,-0.197876,0,0,0,0,0,0
4.500008,0.2715658,0.1372429,-0.1195901,-0.1021952,0,0,0,0,0,0,0,0,1,0,0,0,0,0,0.007496567,-0.001999084,-0.001999084,-0.07434082,-0.996582,-0.197876,0,0,0,0,0,0
4.510008,0.2715658,0.1372429,-0.1195901,-0.1021952,0,0,0,0,0,0,0,0,1,0,0,0,0,0,0,0,0,-0.07653809,-1.003296,-0.1905518,0,0,0,0,0,0
4.520009,0.2702141,0.1307488,-0.1195901,-0.1021952,0,0,0,0,0,0,0,0,0,0,0,0,0,0,0,0,0,-0.07128906,-1.012817,-0.1760254,0,0,0,0,0,0
4.530009,0.2702141,0.1307488,-0.1195901,-0.1021952,0,0,0,0,0,0,0,0,0,0,0,0,0,0,0.002998627,-0.01199451,-0.0009995422,-0.08288574,-0.989624,-0.2233887,0,0,0,0,0,0
4.540009,0.2702141,0.1307488,-0.1195901,-0.1021952,0,0,0,0,0,0,0,0,0,0,0,0,0,0,0,0,0,-0.0970459,-0.9992676,-0.1904297,0,0,0,0,0,0
4.550009,0.2688881,0.1243246,-0.1195901,-0.1021952,0,0,0,0,0,0,0,0,0,0,0,0,0,0,0,0,0,-0.06213379,-0.9863281,-0.1838379,0,0,0,0,0,0
4.560009,0.2675908,0.1179701,-0.1268218,-0.1045723,0,0,0,0,0,0,0,0,0,0,0,0,0,0,0.004382519,-0.004843837,0.00207593,-0.07373047,-0.9909668,-0.1810303,0,0,0,0,0,0
4.57001,0.2663256,0.1116849,-0.1268218,-0.1045723,0,0,0,0,0,0,0,0,0,0,0,0,0,0,0,0,0,-0.07043457,-0.994873,-0.1811523,0,0,0,0,0,0
4.58001,0.2663256,0.1116849,-0.1341747,-0.1068849,0,0,0,0,0,0,0,0,0,0,0,0,0,0,0,0,0,-0.0760498,-0.986084,-0.1768799,0,0,0,0,0,0
4.59001,0.2663256,0.1116849,-0.1341747,-0.1068849,0,0,0,0,0,0,0,0,0,0,0,0,0,0,0,0.0004613585,-0.002076113,-0.07958984,-0.9931641,-0.1864014,0,0,0,0,0,0
4.60001,0.2663256,0.1116849,-0.1416406,-0.1091329,0,0,0,0,0,0,0,0,0,0,0,0,0,0,0,0,0,-0.07128906,-1.001465,-0.1763916,0,0,0,0,0,0
4.610011,0.2663256,0.1116849,-0.1470574,-0.105041,0,0,0,0,0,0,0,0,0,0,0,0,0,0,0,0,0,-0.07507324,-1.002808,-0.182373,0,0,0,0,0,0
4.620011,0.2663256,0.1116849,-0.1605966,-0.1030695,0,0,0,0,0,0,0,0,0,0,0,0,0,0,-0.01199548,0.0004998118,-0.004998118,-0.08630371,-1.00293,-0.1905518,0,0,0,0,0,0
4.630011,0.2663256,0.1116849,-0.1666302,-0.09901215,0,0,0,0,0,0,0,0,0,0,0,0,0,0,0,0,0,-0.08532715,-1,-0.1855469,0,0,0,0,0,0
4.640011,0.2663256,0.1116849,-0.1811433,-0.09677517,0,0,0,0,0,0,0,0,0,0,0,0,0,0,0,0,0,-0.07727051,-0.9901123,-0.1975098,0,0,0,0,0,0
4.650012,0.2650956,0.1054682,-0.220325,-0.09290814,0,0,0,0,0,0,0,0,0,0,0,0,0,0,-0.01074508,0.001249428,-0.007746452,-0.0736084,-0.9880371,-0.2036133,0,0,0,0,0,0
4.660012,0.2639043,0.09931882,-0.2376654,-0.0956125,0,0,0,0,0,0,0,0,0,0,0,0,0,0,0,0,0,-0.07312012,-0.9851074,-0.197998,0,0,0,0,0,0
4.670012,0.2705285,0.08827771,-0.2539394,-0.09208794,0,0,0,0,0,0,0,0,1,0,0,0,0,0,0,0,0,-0.02526855,-1.010376,-0.1171875,0,0,0,0,0,0
4.680012,0.2695113,0.08227186,-0.2705285,-0.08827771,0,0,0,0,0,0,0,0,1,0,0,0,0,0,0,0,0,-0.05212402,-0.9759521,-0.2102051,0,0,0,0,0,0
4.690012,0.2775127,0.07724581,-0.2963575,-0.08509273,0,0,0,0,0,0,0,0,1,0,0,0,0,0,0,0,0,-0.08544922,-0.9857178,-0.2044678,0,0,0,0,0,0
4.700013,0.276634,0.07129742,-0.3037105,-0.07371613,0,0,0,0,0,0,0,0,1,0,0,0,0,0,0,0,0,-0.08007813,-0.9804688,-0.1955566,0,0,0,0,0,0
4.710013,0.2848547,0.06617837,-0.3211266,-0.0690272,0,0,0,0,0,0,0,0,1,0,0,0,0,0,0,0,0,-0.07055664,-0.9848633,-0.2072754,0,0,0,0,0,0
4.720013,0.2834397,0.05439752,-0.338716,-0.0640814,0,0,0,0,0,0,0,0,1,0,0,0,0,0,0,0,0,-0.08374023,-0.9997559,-0.2010498,0,0,0,0,0,0
4.730013,0.2909479,0.03744874,-0.3564549,-0.05889255,0,0,0,0,0,0,0,0,1,0,0,0,0,0,0,0,0,-0.07055664,-0.9996338,-0.189209,0,0,0,0,0,0
4.740014,0.2899264,0.02009391,-0.3651556,-0.0530568,0,0,0,0,0,0,0,0,1,0,0,0,0,0,-0.0002306792,-0.003921547,-0.003690868,-0.06860352,-0.9804688,-0.2026367,0,0,0,0,0,0
4.750014,0.2897199,0.01434257,-0.3831168,-0.04749382,0,0,0,0,0,0,0,0,1,0,0,0,0,0,0,0,0,-0.07202148,-0.994751,-0.2060547,0,0,0,0,0,0
4.760014,0.2895818,-0.00860144,-0.3923012,-0.04784161,0,0,0,0,0,0,0,0,1,0,0,0,0,0,0,0,0,-0.06567383,-0.9862061,-0.1966553,0,0,0,0,0,0
4.770014,0.2899264,-0.02009391,-0.4011773,-0.04172244,0,0,0,0,0,0,0,0,1,0,0,0,0,0,0.01124485,-0.004747826,-0.001999084,-0.06884766,-0.9937744,-0.1912842,0,0,0,0,0,0
4.780015,0.2902005,-0.02585945,-0.4103752,-0.04200691,0,0,0,0,0,0,0,0,1,0,0,0,0,0,0,0,0,-0.07641602,-0.9938965,-0.1895752,0,0,0,0,0,0
4.790015,0.2817789,-0.03700127,-0.4195745,-0.0422827,0,0,0,0,0,0,0,0,0,0,0,0,0,0,0,0,0,-0.07470703,-0.9857178,-0.1912842,0,0,0,0,0,0
4.800015,0.2828224,-0.04856547,-0.4287749,-0.04255018,0,0,0,0,0,0,0,0,0,0,0,0,0,0,0,0,0,-0.0645752,-0.9899902,-0.1800537,0,0,0,0,0,0
4.810015,0.2834397,-0.05439752,-0.4287749,-0.04255018,0,0,0,0,0,0,0,0,0,0,0,0,0,0,0,0,0,-0.06799316,-0.9898682,-0.2197266,0,0,0,0,0,0
4.820015,0.2841178,-0.06026742,-0.4287749,-0.04255018,0,0,0,0,0,0,0,0,0,0,0,0,0,0,0,0,0,-0.07214355,-0.9960938,-0.1918945,0,0,0,0,0,0
4.830016,0.2856479,-0.07213332,-0.4287749,-0.04255018,0,0,0,0,0,0,0,0,0,0,0,0,0,0,0.003498398,-0.004997711,0.003248512,-0.08410645,-1.008423,-0.1717529,0,0,0,0,0,0
4.840016,0.2873932,-0.0841859,-0.4287749,-0.04255018,0,0,0,0,0,0,0,0,0,0,0,0,0,0,0,0,0,-0.07556152,-1.005371,-0.1685791,0,0,0,0,0,0
4.850016,0.2883401,-0.0902883,-0.4287749,-0.04255018,0,0,0,0,0,0,0,0,0,0,0,0,0,0,0,0,0,-0.0814209,-1.010498,-0.1842041,0,0,0,0,0,0
4.860016,0.2903684,-0.1026555,-0.4287749,-0.04255018,0,0,0,0,0,0,0,0,0,0,0,0,0,0,0,0,0,-0.0690918,-1.007446,-0.1671143,0,0,0,0,0,0
4.870017,0.2925577,-0.11525,-0.4287749,-0.04255018,0,0,0,0,0,0,0,0,0,0,0,0,0,0,0,0,0,-0.06774902,-0.9971924,-0.1767578,0,0,0,0,0,0
4.880017,0.2948855,-0.1280816,-0.4287749,-0.04255018,0,0,0,0,0,0,0,0,0,0,0,0,0,0,-0.01599398,-0.002748965,-0.002998871,-0.06616211,-0.991333,-0.1774902,0,0,0,0,0,0
4.890017,0.2948855,-0.1280816,-0.4287749,-0.04255018,0,0,0,0,0,0,0,0,0,0,0,0,0,0,0,0,0,-0.0715332,-0.9748535,-0.1741943,0,0,0,0,0,0
4.900017,0.2960945,-0.1345884,-0.4379766,-0.04280974,0,0,0,0,0,0,0,0,0,0,0,0,0,0,0,0,0,-0.07885742,-0.9703369,-0.2011719,0,0,0,0,0,0
4.910017,0.2973299,-0.1411566,-0.4471794,-0.04306171,0,0,0,0,0,0,0,0,1,0,0,0,0,0,-0.003998169,0.01074508,-0.006247139,-0.09008789,-0.9414063,-0.2897949,0,0,0,0,0,0
4.920018,0.2985891,-0.1477865,-0.4471794,-0.04306171,0,0,0,0,0,0,0,0,1,0,0,0,0,0,0,0,0,-0.1103516,-0.9744873,-0.1959229,0,0,0,0,0,0
4.930018,0.2998696,-0.1544783,-0.4563832,-0.04330643,0,0,0,0,0,0,0,0,1,0,0,0,0,0,0,0,0,-0.08374023,-0.9852295,-0.2042236,0,0,0,0,0,0
4.940018,0.3024843,-0.1680469,-0.465588,-0.0435442,0,0,0,0,0,0,0,0,1,0,0,0,0,0,0,0,0,-0.06665039,-0.9782715,-0.2081299,0,0,0,0,0,0
4.950018,0.2967493,-0.180497,-0.4747938,-0.04377531,0,0,0,0,0,0,0,0,1,0,0,0,0,0,0.004248055,-0.003248512,-0.004747826,-0.06762695,-0.9888916,-0.2113037,0,0,0,0,0,0
4.960019,0.2897989,-0.1860814,-0.4745831,-0.03702421,0,0,0,0,0,0,0,0,1,0,0,0,0,0,0,0,0,-0.07531738,-0.9971924,-0.1983643,0,0,0,0,0,0
4.970019,0.2926505,-0.2002346,-0.4837955,-0.03721504,0,0,0,0,0,0,0,0,1,0,0,0,0,0,0,0,0,-0.06567383,-0.99646,-0.2022705,0,0,0,0,0,0
4.980019,0.2873426,-0.2131897,-0.4930085,-0.03740064,0,0,0,0,0,0,0,0,1,0,0,0,0,0,0.008745994,-0.008496109,0,-0.06677246,-1.000244,-0.2032471,0,0,0,0,0,0
4.990019,0.2887994,-0.2204813,-0.5020599,-0.03073836,0,0,0,0,0,0,0,0,1,0,0,0,0,0,0,0,0,-0.06433105,-1.002808,-0.185791,0,0,0,0,0,0
5.00002,0.2836587,-0.2337847,-0.5020599,-0.03073836,0,0,0,0,0,0,0,0,1,0,0,0,0,0,0,0,0,-0.06213379,-1.004639,-0.1860352,0,0,0,0,0,0
5.01002,0.2756663,-0.2323031,-0.5112784,-0.03088259,0,0,0,0,0,0,0,0,0,0,0,0,0,0,0,0,0,-0.06896973,-1.01123,-0.1879883,0,0,0,0,0,0
5.02002,0.2771555,-0.2397862,-0.5112784,-0.03088259,0,0,0,0,0,0,0,0,0,0,0,0,0,0,-0.0004997711,-0.01424348,0.006247139,-0.05322266,-0.9993896,-0.2493896,0,0,0,0,0,0
5.03002,0.2692372,-0.2382904,-0.5112784,-0.03088259,0,0,0,0,0,0,0,0,0,0,0,0,0,0,0,0,0,-0.06848145,-0.9954834,-0.1992188,0,0,0,0,0,0
5.04002,0.2707385,-0.245843,-0.5112784,-0.03088259,0,0,0,0,0,0,0,0,0,0,0,0,0,0,0.004748212,-0.00674746,0.002998871,-0.07714844,-1.00061,-0.1876221,0,0,0,0,0,0
5.050021,0.2707385,-0.245843,-0.5112784,-0.03088259,0,0,0,0,0,0,0,0,0,0,0,0,0,0,0,0,0,-0.07080078,-0.9951172,-0.175293,0,0,0,0,0,0
5.060021,0.2722263,-0.2534521,-0.5112784,-0.03088259,0,0,0,0,0,0,0,0,0,0,0,0,0,0,0,0,0,-0.07336426,-0.9951172,-0.1831055,0,0,0,0,0,0
5.070021,0.2722263,-0.2534521,-0.5112784,-0.03088259,0,0,0,0,0,0,0,0,0,0,0,0,0,0,-0.007496567,-0.001749199,-0.002498855,-0.07507324,-1.003418,-0.177124,0,0,0,0,0,0
5.080021,0.2722263,-0.2534521,-0.5112784,-0.03088259,0,0,0,0,0,0,0,0,0,0,0,0,0,0,0,0,0,-0.07995605,-0.9938965,-0.1790771,0,0,0,0,0,0
5.090022,0.2722263,-0.2534521,-0.5111518,-0.02401384,0,0,0,0,0,0,0,0,0,0,0,0,0,0,0,0,0,-0.08056641,-0.9957275,-0.1871338,0,0,0,0,0,0
5.100022,0.2722263,-0.2534521,-0.5111518,-0.02401384,0,0,0,0,0,0,0,0,0,0,0,0,0,0,0,0,0,-0.06982422,-0.9876709,-0.1862793,0,0,0,0,0,0
5.110022,0.2722263,-0.2534521,-0.5110567,-0.01714955,0,0,0,0,0,0,0,0,0,0,0,0,0,0,0,0,0,-0.07678223,-0.9820557,-0.2004395,0,0,0,0,0,0
5.120022,0.2751581,-0.2688326,-0.5110567,-0.01714955,0,0,0,0,0,0,0,0,0,0,0,0,0,0,0,0,0,-0.08251953,-0.982666,-0.210083,0,0,0,0,0,0
5.130023,0.2716973,-0.2908759,-0.5109931,-0.01028845,0,0,0,0,0,0,0,0,1,0,0,0,0,0,-0.0009226355,-0.004382519,-0.006919767,-0.1235352,-0.9975586,-0.1556396,0,0,0,0,0,0
5.140023,0.2654256,-0.2974046,-0.5109614,-0.003429271,0,0,0,0,0,0,0,0,1,0,0,0,0,0,0,0,0,-0.05212402,-0.9830322,-0.2012939,0,0,0,0,0,0
5.150023,0.2605914,-0.3120663,-0.5110567,0.01714955,0,0,0,0,0,0,0,0,1,0,0,0,0,0,0,0,0,-0.08996582,-0.9923096,-0.2106934,0,0,0,0,0,0
5.160023,0.2583781,-0.3434139,-0.4837955,0.03721504,0,0,0,0,0,0,0,0,1,0,0,0,0,0,0.004748212,-0.00674746,-0.00674746,-0.07629395,-0.9958496,-0.2010498,0,0,0,0,0,0
5.170023,0.2609142,-0.3599955,-0.4747938,0.04377531,0,0,0,0,0,0,0,0,1,0,0,0,0,0,0,0,0,-0.0736084,-0.9938965,-0.2027588,0,0,0,0,0,0
5.180024,0.2496206,-0.3827515,-0.4750387,0.05053603,0,0,0,0,0,0,0,0,1,0,0,0,0,0,0,0,0,-0.06298828,-1.001831,-0.2080078,0,0,0,0,0,0
5.190024,0.2519284,-0.3997263,-0.4661264,0.05700827,0,0,0,0,0,0,0,0,1,0,0,0,0,0,0,0,0,-0.06164551,-0.9941406,-0.1881104,0,0,0,0,0,0
5.200024,0.2477994,-0.4243139,-0.4661264,0.05700827,0,0,0,0,0,0,0,0,1,0,0,0,0,0,0,0,0,-0.06359863,-0.9887695,-0.1992188,0,0,0,0,0,0
5.210024,0.2424758,-0.4405547,-0.4572671,0.0634166,0,0,0,0,0,0,0,0,1,0,0,0,0,0,0,0,0,-0.06811523,-0.9940186,-0.1920166,0,0,0,0,0,0
5.220025,0.2360995,-0.4482468,-0.448089,0.06306438,0,0,0,0,0,0,0,0,0,0,0,0,0,0,0.009495651,-0.009495651,0.007496567,-0.05932617,-0.9935303,-0.1867676,0,0,0,0,0,0
5.230025,0.2370723,-0.4569654,-0.4389132,0.06270189,0,0,0,0,0,0,0,0,0,0,0,0,0,0,0,0,0,-0.06323242,-1.001099,-0.1806641,0,0,0,0,0,0
5.240025,0.2306606,-0.4647638,-0.4297397,0.06232866,0,0,0,0,0,0,0,0,0,0,0,0,0,0,0,0,0,-0.08068848,-0.963501,-0.2237549,0,0,0,0,0,0
5.250025,0.2306606,-0.4647638,-0.4114003,0.06154807,0,0,0,0,0,0,0,0,0,0,0,0,0,0,0.00449794,-0.002498855,0.002748741,-0.08972168,-0.9907227,-0.1850586,0,0,0,0,0,0
5.260026,0.2324874,-0.4823246,-0.4114003,0.06154807,0,0,0,0,0,0,0,0,0,0,0,0,0,0,0,0,0,-0.06445313,-0.9908447,-0.1793213,0,0,0,0,0,0
5.270026,0.2333729,-0.4911281,-0.4022346,0.06113966,0,0,0,0,0,0,0,0,0,0,0,0,0,0,0,0,0,-0.07727051,-1.003418,-0.1749268,0,0,0,0,0,0
5.280026,0.2268606,-0.4990934,-0.3930719,0.06071843,0,0,0,0,0,0,0,0,0,0,0,0,0,0,-0.002768151,-0.00322951,-0.002768151,-0.07336426,-1.005859,-0.1844482,0,0,0,0,0,0
5.290026,0.2276983,-0.5079424,-0.3843754,0.06670978,0,0,0,0,0,0,0,0,0,0,0,0,0,0,-0.004152226,-0.001845434,-0.003921547,-0.06860352,-1.002075,-0.1738281,0,0,0,0,0,0
5.300026,0.2285189,-0.5168043,-0.3757556,0.07262503,0,0,0,0,0,0,0,0,0,0,0,0,0,0,0,0,0,-0.07446289,-0.998291,-0.1826172,0,0,0,0,0,0
5.310027,0.2285189,-0.5168043,-0.3672175,0.07846527,0,0,0,0,0,0,0,0,0,0,0,0,0,0,0,0,0,-0.07336426,-0.9996338,-0.1870117,0,0,0,0,0,0
5.320027,0.2293228,-0.5256785,-0.3496989,0.08355638,0,0,0,0,0,0,0,0,0,0,0,0,0,0,-0.005766472,0.003690542,-0.001383953,-0.07128906,-0.9956055,-0.1867676,0,0,0,0,0,0
5.330027,0.2293228,-0.5256785,-0.3406399,0.08285837,0,0,0,0,0,0,0,0,0,0,0,0,0,0,0,0,0,-0.07373047,-0.9936523,-0.1900635,0,0,0,0,0,0
5.340027,0.2375395,-0.5353503,-0.3323455,0.0884222,0,0,0,0,0,0,0,0,0,0,0,0,0,0,0,0,0,-0.07507324,-0.9862061,-0.197998,0,0,0,0,0,0
5.350028,0.2308823,-0.5434615,-0.3233306,0.08763166,0,0,0,0,0,0,0,0,0,0,0,0,0,0,0.0002498855,0.006996796,-0.003248512,-0.104248,-0.9534912,-0.2701416,0,0,0,0,0,0
5.360028,0.2316388,-0.5523694,-0.3143271,0.08681414,0,0,0,0,0,0,0,0,1,0,0,0,0,0,0,0,0,-0.1120605,-0.9770508,-0.2000732,0,0,0,0,0,0
5.370028,0.2331071,-0.5702159,-0.3151807,0.09305335,0,0,0,0,0,0,0,0,1,0,0,0,0,0,0,0,0,-0.08154297,-0.9842529,-0.1911621,0,0,0,0,0,0
5.380028,0.2345186,-0.5881004,-0.307146,0.09840599,0,0,0,0,0,0,0,0,1,0,0,0,0,0,0.001499313,-0.007996337,-0.003748283,-0.06567383,-0.9804688,-0.1906738,0,0,0,0,0,0
5.390028,0.235876,-0.60602,-0.299232,0.1036943,0,0,0,0,0,0,0,0,1,0,0,0,0,0,0,0,0,-0.07775879,-0.9915771,-0.2080078,0,0,0,0,0,0
5.400029,0.2378171,-0.6329593,-0.2914443,0.1089236,0,0,0,0,0,0,0,0,1,0,0,0,0,0,0,0,0,-0.07104492,-0.9987793,-0.1774902,0,0,0,0,0,0
5.410029,0.2390514,-0.6509553,-0.2849734,0.1204527,0,0,0,0,0,0,0,0,1,0,0,0,0,0,0,0,0,-0.07556152,-0.9993896,-0.1901855,0,0,0,0,0,0
5.420029,0.2408191,-0.6779984,-0.2688881,0.1243246,0,0,0,0,0,0,0,0,1,0,0,0,0,0,0,0,0,-0.07336426,-1.00293,-0.1943359,0,0,0,0,0,0
5.430029,0.241945,-0.6960572,-0.2702141,0.1307488,0,0,0,0,0,0,0,0,1,0,0,0,0,0,0,0,0,-0.06201172,-1.00647,-0.184082,0,0,0,0,0,0
5.44003,0.242493,-0.705095,-0.2630458,0.1358588,0,0,0,0,0,0,0,0,1,0,0,0,0,0,0,0,0,-0.06872559,-1.005005,-0.1893311,0,0,0,0,0,0
5.45003,0.2430313,-0.714138,-0.2545635,0.1344324,0,0,0,0,0,0,0,0,1,0,0,0,0,0,0,0,0,-0.06359863,-1.002319,-0.1882324,0,0,0,0,0,0
5.46003,0.2435601,-0.7231862,-0.2461216,0.1329622,0,0,0,0,0,0,0,0,1,0,0,0,0,0,0.003921201,-0.003229225,0.004382519,-0.07104492,-0.9902344,-0.190918,0,0,0,0,0,0
5.47003,0.2435601,-0.7231862,-0.2293699,0.1298841,0,0,0,0,0,0,0,0,1,0,0,0,0,0,0,0,0,-0.0748291,-0.994751,-0.1982422,0,0,0,0,0,0
5.480031,0.2435601,-0.7231862,-0.2210662,0.128273,0,0,0,0,0,0,0,0,1,0,0,0,0,0,0,0,0,-0.07800293,-0.9881592,-0.1925049,0,0,0,0,0,0
5.490031,0.2435601,-0.7231862,-0.2046205,0.1248982,0,0,0,0,0,0,0,0,1,0,0,0,0,0,0,0,0,-0.07458496,-0.9825439,-0.19104,0,0,0,0,0,0
5.500031,0.2435601,-0.7231862,-0.1884164,0.1213092,0,0,0,0,0,0,0,0,1,0,0,0,0,0,0.007497177,-0.005248024,0.0007497177,-0.07250977,-0.9876709,-0.1964111,0,0,0,0,0,0
5.510031,0.2440798,-0.7322393,-0.1884164,0.1213092,0,0,0,0,0,0,0,0,0,0,0,0,0,0,0,0,0,-0.07067871,-0.9925537,-0.1855469,0,0,0,0,0,0
5.520031,0.2445904,-0.7412971,-0.1804159,0.1194302,0,0,0,0,0,0,0,0,0,0,0,0,0,0,0,0,0,-0.07287598,-0.9935303,-0.1796875,0,0,0,0,0,0
5.530032,0.2445904,-0.7412971,-0.1724896,0.1174929,0,0,0,0,0,0,0,0,0,0,0,0,0,0,0,0,0,-0.07165527,-0.9984131,-0.1733398,0,0,0,0,0,0
5.540032,0.2450923,-0.7503596,-0.1568817,0.1134375,0,0,0,0,0,0,0,0,0,0,0,0,0,0,0,0,0,-0.06665039,-0.9822998,-0.2298584,0,0,0,0,0,0
5.550032,0.2455857,-0.7594265,-0.1268218,0.1045723,0,0,0,0,0,0,0,0,0,0,0,0,0,0,0.01174558,0.003248777,0,-0.05908203,-0.9848633,-0.1845703,0,0,0,0,0,0
5.560032,0.2460707,-0.7684976,-0.1124882,0.09975371,0,0,0,0,0,0,0,0,0,0,0,0,0,0,0,0,0,-0.07409668,-0.9932861,-0.1777344,0,0,0,0,0,0
5.570033,0.2465475,-0.7775729,-0.09205613,0.09205613,0,0,0,0,0,0,0,0,0,0,0,0,0,0,0,0,0,-0.07373047,-0.9976807,-0.1679688,0,0,0,0,0,0
5.580033,0.2474775,-0.7957353,-0.09205613,0.09205613,0,0,0,0,0,0,0,0,0,0,0,0,0,0,-0.002998627,-0.00224897,-0.005247597,-0.07006836,-0.9916992,-0.1853027,0,0,0,0,0,0
5.590033,0.247931,-0.8048221,-0.08557043,0.08937357,0,0,0,0,0,0,0,0,0,0,0,0,0,0,0,0,0,-0.06713867,-0.9919434,-0.1782227,0,0,0,0,0,0
5.600033,0.2483771,-0.8139126,-0.08557043,0.08937357,0,0,0,0,0,0,0,0,0,0,0,0,0,0,0,0,0,-0.06665039,-0.9903564,-0.1793213,0,0,0,0,0,0
5.610034,0.248816,-0.8230066,-0.07926521,0.08663872,0,0,0,0,0,0,0,0,0,0,0,0,0,0,-0.003998169,-0.0007496566,-0.003248512,-0.07055664,-0.9981689,-0.1856689,0,0,0,0,0,0
5.620034,0.248816,-0.8230066,-0.07315177,0.0838569,0,0,0,0,0,0,0,0,0,0,0,0,0,0,0,0,0,-0.06164551,-1.001953,-0.1707764,0,0,0,0,0,0
5.630034,0.256609,-0.8234468,-0.06724153,0.08103468,0,0,0,0,0,0,0,0,0,0,0,0,0,0,0,0,0,-0.06774902,-0.9984131,-0.1727295,0,0,0,0,0,0
5.640034,0.256609,-0.8234468,-0.06724153,0.08103468,0,0,0,0,0,0,0,0,0,0,0,0,0,0,0,0,0,-0.06506348,-1.005127,-0.1802979,0,0,0,0,0,0
5.650034,0.256609,-0.8234468,-0.06436193,0.08523607,0,0,0,0,0,0,0,0,0,0,0,0,0,0,0,0,0,-0.09118652,-0.9840088,-0.2224121,0,0,0,0,0,0
5.660035,0.2644134,-0.8238968,-0.06436193,0.08523607,0,0,0,0,0,0,0,0,1,0,0,0,0,0,0,0,0,-0.04272461,-0.996582,-0.2071533,0,0,0,0,0,0
5.670035,0.2644134,-0.8238968,-0.06436193,0.08523607,0,0,0,0,0,0,0,0,1,0,0,0,0,0,-0.007151056,-0.003460189,-0.0006920377,-0.08886719,-0.9985352,-0.1984863,0,0,0,0,0,0
5.680035,0.2644134,-0.8238968,-0.06707518,0.09245497,0,0,0,0,0,0,0,0,1,0,0,0,0,0,0,0,0,-0.06774902,-0.9848633,-0.2004395,0,0,0,0,0,0
5.690035,0.2644134,-0.8238968,-0.06707518,0.09245497,0,0,0,0,0,0,0,0,1,0,0,0,0,0,0,0,0,-0.07275391,-0.9881592,-0.206543,0,0,0,0,0,0
5.700036,0.2644134,-0.8238968,-0.0642302,0.09726287,0,0,0,0,0,0,0,0,1,0,0,0,0,0,0.001249428,-0.001999084,-0.002748741,-0.07849121,-1.006348,-0.1940918,0,0,0,0,0,0
5.710036,0.2644134,-0.8238968,-0.06673362,0.1048671,0,0,0,0,0,0,0,0,1,0,0,0,0,0,0,0,0,-0.07324219,-0.9949951,-0.1921387,0,0,0,0,0,0
5.720036,0.2644134,-0.8238968,-0.06145577,0.1024263,0,0,0,0,0,0,0,0,1,0,0,0,0,0,0,0,0,-0.07714844,-0.9963379,-0.2043457,0,0,0,0,0,0
5.730036,0.2644134,-0.8238968,-0.05377283,0.1056914,0,0,0,0,0,0,0,0,1,0,0,0,0,0,0.004747826,-0.001999084,-0.001249428,-0.06884766,-0.9932861,-0.1931152,0,0,0,0,0,0
5.740036,0.2644134,-0.8238968,-0.05113383,0.1117369,0,0,0,0,0,0,0,0,1,0,0,0,0,0,0,0,0,-0.0760498,-0.9829102,-0.1950684,0,0,0,0,0,0
5.750037,0.2644134,-0.8238968,-0.04724622,0.1335219,0,0,0,0,0,0,0,0,1,0,0,0,0,0,0,0,0,-0.07141113,-0.9929199,-0.1951904,0,0,0,0,0,0
5.760037,0.2570506,-0.832537,-0.03733934,0.1559467,0,0,0,0,0,0,0,0,0,0,0,0,0,0,0.006497024,-0.005497482,-0.0009995422,-0.07629395,-0.9925537,-0.1804199,0,0,0,0,0,0
5.770037,0.2570506,-0.832537,-0.03059895,0.1812399,0,0,0,0,0,0,0,0,0,0,0,0,0,0,0,0,0,-0.06994629,-0.9919434,-0.1833496,0,0,0,0,0,0
5.780037,0.2574852,-0.8416306,-0.01270534,0.2159908,0,0,0,0,0,0,0,0,0,0,0,0,0,0,0,0,0,-0.05529785,-0.9848633,-0.2399902,0,0,0,0,0,0
5.790038,0.2574852,-0.8416306,0.008026278,0.2434638,0,0,0,0,0,0,0,0,0,0,0,0,0,0,0.005074943,-0.00322951,0.001384075,-0.08276367,-0.9967041,-0.1968994,0,0,0,0,0,0
5.800038,0.2574852,-0.8416306,0.01359407,0.2528496,0,0,0,0,0,0,0,0,0,0,0,0,0,0,0,0,0,-0.04541016,-0.9863281,-0.1883545,0,0,0,0,0,0
5.810038,0.2579129,-0.8507276,0.01905001,0.2530929,0,0,0,0,0,0,0,0,0,0,0,0,0,0,0,0,0,-0.0793457,-1.004639,-0.1749268,0,0,0,0,0,0
5.820038,0.2505021,-0.8594148,0.01905001,0.2530929,0,0,0,0,0,0,0,0,0,0,0,0,0,0,0,0,0,-0.07250977,-1.005493,-0.1627197,0,0,0,0,0,0
5.830039,0.2509071,-0.8685246,0.02487875,0.262609,0,0,0,0,0,0,0,0,0,0,0,0,0,0,0,0,0,-0.07043457,-0.9981689,-0.1704102,0,0,0,0,0,0
5.840039,0.2509071,-0.8685246,0.02487875,0.262609,0,0,0,0,0,0,0,0,0,0,0,0,0,0,-0.007497177,-0.001999247,-0.003498683,-0.06713867,-1.004272,-0.1755371,0,0,0,0,0,0
5.850039,0.2509071,-0.8685246,0.02487875,0.262609,0,0,0,0,0,0,0,0,0,0,0,0,0,0,0,0,0,-0.06506348,-0.9951172,-0.1678467,0,0,0,0,0,0
5.860039,0.2509071,-0.8685246,0.02487875,0.262609,0,0,0,0,0,0,0,0,0,0,0,0,0,0,0,0,0,-0.06762695,-0.9886475,-0.1781006,0,0,0,0,0,0
5.870039,0.2509071,-0.8685246,0.02487875,0.262609,0,0,0,0,0,0,0,0,0,0,0,0,0,0,0,0,0,-0.07104492,-0.9912109,-0.1804199,0,0,0,0,0,0
5.88004,0.2509071,-0.8685246,0.02521896,0.2718043,0,0,0,0,0,0,0,0,0,0,0,0,0,0,0,0,0,-0.06994629,-0.9866943,-0.1884766,0,0,0,0,0,0
5.89004,0.2513058,-0.877637,0.02521896,0.2718043,0,0,0,0,0,0,0,0,1,0,0,0,0,0,-0.001249428,0.007246681,0.00224897,-0.1074219,-0.9584961,-0.2703857,0,0,0,0,0,0
5.90004,0.2509071,-0.8685246,0.03086503,0.2721735,0,0,0,0,0,0,0,0,1,0,0,0,0,0,0,0,0,-0.0949707,-0.9898682,-0.2015381,0,0,0,0,0,0
5.91004,0.2509071,-0.8685246,0.0312618,0.2813562,0,0,0,0,0,0,0,0,1,0,0,0,0,0,0,0,0,-0.09179688,-0.9924316,-0.1851807,0,0,0,0,0,0
5.920041,0.2509071,-0.8685246,0.03700127,0.2817789,0,0,0,0,0,0,0,0,1,0,0,0,0,0,-0.00207593,-0.003459883,-0.0006919767,-0.06616211,-0.989624,-0.1972656,0,0,0,0,0,0
5.930041,0.2509071,-0.8685246,0.03700127,0.2817789,0,0,0,0,0,0,0,0,1,0,0,0,0,0,0,0,0,-0.07373047,-0.9932861,-0.2005615,0,0,0,0,0,0
5.940041,0.2513058,-0.877637,0.04327999,0.2914186,0,0,0,0,0,0,0,0,1,0,0,0,0,0,0,0,0,-0.07189941,-0.9991455,-0.1901855,0,0,0,0,0,0
5.950041,0.2516983,-0.8867524,0.04327999,0.2914186,0,0,0,0,0,0,0,0,1,0,0,0,0,0,0.005497482,-0.0009995422,-0.00224897,-0.07165527,-0.9926758,-0.2056885,0,0,0,0,0,0
5.960042,0.2520848,-0.8958703,0.04914042,0.2919519,0,0,0,0,0,0,0,0,1,0,0,0,0,0,0,0,0,-0.06762695,-0.9970703,-0.2056885,0,0,0,0,0,0
5.970042,0.2524653,-0.904991,0.05503342,0.2925461,0,0,0,0,0,0,0,0,1,0,0,0,0,0,0,0,0,-0.06994629,-0.9985352,-0.1864014,0,0,0,0,0,0
5.980042,0.2453219,-0.9228778,0.05503342,0.2925461,0,0,0,0,0,0,0,0,0,0,0,0,0,0,0.004748212,-0.006497554,0.0007497177,-0.06506348,-0.9910889,-0.1907959,0,0,0,0,0,0
5.990042,0.2453219,-0.9228778,0.0609622,0.2931992,0,0,0,0,0,0,0,0,0,0,0,0,0,0,0,0,0,-0.0567627,-1.001587,-0.1748047,0,0,0,0,0,0
6.000042,0.2377886,-0.9316638,0.0609622,0.2931992,0,0,0,0,0,0,0,0,0,0,0,0,0,0,0.004248055,-0.008745994,0.006497024,-0.07458496,-0.9476318,-0.1986084,0,0,0,0,0,0
6.010043,0.2377886,-0.9316638,0.0669298,0.2939091,0,0,0,0,0,0,0,0,0,0,0,0,0,0,0,0,0,-0.08825684,-0.9892578,-0.1950684,0,0,0,0,0,0
6.020043,0.2381289,-0.9408044,0.07371613,0.3037105,0,0,0,0,0,0,0,0,0,0,0,0,0,0,0,0,0,-0.06298828,-0.9868164,-0.1724854,0,0,0,0,0,0
6.030043,0.2381289,-0.9408044,0.07982007,0.3044988,0,0,0,0,0,0,0,0,0,0,0,0,0,0,0.00449794,-0.00224897,0.001749199,-0.0715332,-1.008667,-0.1663818,0,0,0,0,0,0
6.040043,0.2302399,-0.9404713,0.08596831,0.3053357,0,0,0,0,0,0,0,0,0,0,0,0,0,0,0,0,0,-0.07128906,-1.001587,-0.1760254,0,0,0,0,0,0
6.050044,0.2305659,-0.9496191,0.08596831,0.3053357,0,0,0,0,0,0,0,0,0,0,0,0,0,0,0,0,0,-0.07019043,-0.9998779,-0.1606445,0,0,0,0,0,0
6.060044,0.2305659,-0.9496191,0.09216297,0.3062189,0,0,0,0,0,0,0,0,0,0,0,0,0,0,0,0,0,-0.07165527,-1.005981,-0.1677246,0,0,0,0,0,0
6.070044,0.2305659,-0.9496191,0.09305335,0.3151807,0,0,0,0,0,0,0,0,0,0,0,0,0,0,0,0,0,-0.07141113,-1.004761,-0.1668701,0,0,0,0,0,0
6.080044,0.2305659,-0.9496191,0.09933856,0.3160772,0,0,0,0,0,0,0,0,0,0,0,0,0,0,-0.0154929,-0.001249428,-0.005747368,-0.0736084,-0.99646,-0.1638184,0,0,0,0,0,0
6.090044,0.2305659,-0.9496191,0.1066129,0.3259307,0,0,0,0,0,0,0,0,0,0,0,0,0,0,-0.01499313,0.0002498855,-0.005247597,-0.07861328,-0.9926758,-0.1854248,0,0,0,0,0,0
6.100045,0.2305659,-0.9496191,0.1139797,0.3357779,0,0,0,0,0,0,0,0,0,0,0,0,0,0,0,0,0,-0.06933594,-0.9884033,-0.2010498,0,0,0,0,0,0
6.110045,0.2305659,-0.9496191,0.1204808,0.3367283,0,0,0,0,0,0,0,0,1,0,0,0,0,0,-0.003921547,0.001153396,-0.005305622,-0.04040527,-1.027832,-0.07226563,0,0,0,0,0,0
6.120045,0.2305659,-0.9496191,0.1204808,0.3367283,0,0,0,0,0,0,0,0,1,0,0,0,0,0,0,0,0,-0.03955078,-0.9824219,-0.1912842,0,0,0,0,0,0
6.130045,0.2305659,-0.9496191,0.1346388,0.347556,0,0,0,0,0,0,0,0,1,0,0,0,0,0,0,0,0,-0.07946777,-0.9923096,-0.2093506,0,0,0,0,0,0
6.140046,0.2305659,-0.9496191,0.1346388,0.347556,0,0,0,0,0,0,0,0,1,0,0,0,0,0,0.001249428,-0.004747826,0.001999084,-0.06896973,-0.9904785,-0.1937256,0,0,0,0,0,0
6.150046,0.2226753,-0.9493,0.1346388,0.347556,0,0,0,0,0,0,0,0,1,0,0,0,0,0,0,0,0,-0.07141113,-0.9873047,-0.1949463,0,0,0,0,0,0
6.160046,0.2226753,-0.9493,0.1423232,0.3573892,0,0,0,0,0,0,0,0,1,0,0,0,0,0,0,0,0,-0.0703125,-0.9949951,-0.2015381,0,0,0,0,0,0
6.170046,0.2150947,-0.9581493,0.1490688,0.3583994,0,0,0,0,0,0,0,0,1,0,0,0,0,0,0.002998627,-0.00674691,0.002998627,-0.06799316,-0.9989014,-0.1882324,0,0,0,0,0,0
6.180047,0.2074979,-0.9670185,0.1558607,0.3594338,0,0,0,0,0,0,0,0,1,0,0,0,0,0,0,0,0,-0.07275391,-0.996582,-0.1899414,0,0,0,0,0,0
6.190047,0.1998846,-0.9759073,0.1558607,0.3594338,0,0,0,0,0,0,0,0,0,0,0,0,0,0,0.007496567,-0.0009995422,0.002998627,-0.07385254,-0.9963379,-0.1916504,0,0,0,0,0,0
6.200047,0.1998846,-0.9759073,0.1626993,0.3604906,0,0,0,0,0,0,0,0,0,0,0,0,0,0,0,0,0,-0.06066895,-1.003052,-0.1650391,0,0,0,0,0,0
6.210047,0.1998846,-0.9759073,0.1626993,0.3604906,0,0,0,0,0,0,0,0,0,0,0,0,0,0,0,0,0,-0.08312988,-0.9903564,-0.2032471,0,0,0,0,0,0
6.220047,0.1998846,-0.9759073,0.1626993,0.3604906,0,0,0,0,0,0,0,0,0,0,0,0,0,0,0.003998169,-0.001499313,0.003998169,-0.06188965,-0.9727783,-0.2064209,0,0,0,0,0,0
6.230048,0.1998846,-0.9759073,0.1626993,0.3604906,0,0,0,0,0,0,0,0,0,0,0,0,0,0,0,0,0,-0.05688477,-0.989624,-0.1767578,0,0,0,0,0,0
6.240048,0.1998846,-0.9759073,0.1626993,0.3604906,0,0,0,0,0,0,0,0,0,0,0,0,0,0,0,0,0,-0.07055664,-0.9876709,-0.1721191,0,0,0,0,0,0
6.250048,0.1998846,-0.9759073,0.1626993,0.3604906,0,0,0,0,0,0,0,0,0,0,0,0,0,0,-0.002998566,-0.002537248,-0.001614612,-0.078125,-0.9880371,-0.1923828,0,0,0,0,0,0
6.260048,0.1998846,-0.9759073,0.1626993,0.3604906,0,0,0,0,0,0,0,0,0,0,0,0,0,0,0,0,0,-0.06079102,-0.9919434,-0.1625977,0,0,0,0,0,0
6.270049,0.1998846,-0.9759073,0.1626993,0.3604906,0,0,0,0,0,0,0,0,0,0,0,0,0,0,0,0,0,-0.06481934,-0.9967041,-0.1621094,0,0,0,0,0,0
6.280049,0.1998846,-0.9759073,0.1626993,0.3604906,0,0,0,0,0,0,0,0,0,0,0,0,0,0,0,0,0,-0.06848145,-1.000122,-0.1730957,0,0,0,0,0,0
6.290049,0.2077823,-0.976185,0.1626993,0.3604906,0,0,0,0,0,0,0,0,0,0,0,0,0,0,0,0,0,-0.07312012,-0.993042,-0.1774902,0,0,0,0,0,0
6.300049,0.2077823,-0.976185,0.1626993,0.3604906,0,0,0,0,0,0,0,0,1,0,0,0,0,0,0,0,0,-0.03344727,-1.010132,-0.1450195,0,0,0,0,0,0
6.31005,0.2153929,-0.9673098,0.1626993,0.3604906,0,0,0,0,0,0,0,0,1,0,0,0,0,0,-0.007746452,0,0.001249428,-0.06591797,-1.004028,-0.1717529,0,0,0,0,0,0
6.32005,0.2153929,-0.9673098,0.1616176,0.351756,0,0,0,0,0,0,0,0,1,0,0,0,0,0,0,0,0,-0.09277344,-1.003906,-0.1940918,0,0,0,0,0,0
6.33005,0.2229873,-0.9584543,0.1605068,0.3430438,0,0,0,0,0,0,0,0,1,0,0,0,0,0,0,0,0,-0.07385254,-0.9888916,-0.1998291,0,0,0,0,0,0
6.34005,0.2229873,-0.9584543,0.1605068,0.3430438,0,0,0,0,0,0,0,0,1,0,0,0,0,0,0.001249428,-0.0009995422,-0.00224897,-0.078125,-0.9906006,-0.1893311,0,0,0,0,0,0
6.35005,0.2229873,-0.9584543,0.1605068,0.3430438,0,0,0,0,0,0,0,0,1,0,0,0,0,0,0,0,0,-0.07617188,-0.9956055,-0.1945801,0,0,0,0,0,0
6.360051,0.2229873,-0.9584543,0.1593657,0.3343555,0,0,0,0,0,0,0,0,1,0,0,0,0,0,0,0,0,-0.07421875,-0.984375,-0.1960449,0,0,0,0,0,0
6.370051,0.2229873,-0.9584543,0.1581934,0.3256923,0,0,0,0,0,0,0,0,1,0,0,0,0,0,0,0,0,-0.06408691,-0.9882813,-0.1977539,0,0,0,0,0,0
6.380051,0.2229873,-0.9584543,0.1544783,0.2998696,0,0,0,0,0,0,0,0,1,0,0,0,0,0,0,0,0,-0.06677246,-0.9936523,-0.1843262,0,0,0,0,0,0
6.390051,0.2226753,-0.9493,0.1504413,0.2743341,0,0,0,0,0,0,0,0,1,0,0,0,0,0,0.003459883,-0.002537248,0.002767907,-0.06884766,-0.9862061,-0.1881104,0,0,0,0,0,0
6.400052,0.2226753,-0.9493,0.1490185,0.2658957,0,0,0,0,0,0,0,0,0,0,0,0,0,0,0,0,0,-0.06896973,-0.9920654,-0.1848145,0,0,0,0,0,0
6.410052,0.2229873,-0.9584543,0.1460495,0.2491433,0,0,0,0,0,0,0,0,0,0,0,0,0,0,0,0,0,-0.05187988,-1.014648,-0.1271973,0,0,0,0,0,0
6.420052,0.2226753,-0.9493,0.1412683,0.2243672,0,0,0,0,0,0,0,0,0,0,0,0,0,0,0.006497024,-0.001749199,0.002998627,-0.1011963,-1.00354,-0.170166,0,0,0,0,0,0
6.430052,0.2226753,-0.9493,0.1313242,0.2063666,0,0,0,0,0,0,0,0,0,0,0,0,0,0,0,0,0,-0.06652832,-0.9956055,-0.2003174,0,0,0,0,0,0
6.440053,0.2226753,-0.9493,0.1258309,0.1823265,0,0,0,0,0,0,0,0,0,0,0,0,0,0,0,0,0,-0.07556152,-1.005371,-0.1806641,0,0,0,0,0,0
6.450053,0.2223585,-0.9401474,0.1134375,0.1568817,0,0,0,0,0,0,0,0,0,0,0,0,0,0,0,0,0,-0.07641602,-1.005249,-0.171875,0,0,0,0,0,0
6.460053,0.2220369,-0.9309966,0.1028509,0.1394201,0,0,0,0,0,0,0,0,0,0,0,0,0,0,0,0,0,-0.07556152,-0.989502,-0.1967773,0,0,0,0,0,0
6.470053,0.2213784,-0.9127005,0.08969313,0.1147238,0,0,0,0,0,0,0,0,0,0,0,0,0,0,0,0,0,-0.0715332,-0.9976807,-0.1815186,0,0,0,0,0,0
6.480053,0.2281746,-0.8856268,0.07003448,0.08799204,0,0,0,0,0,0,0,0,0,0,0,0,0,0,-0.0002498855,-0.002498855,0.0002498855,-0.07250977,-0.9935303,-0.1713867,0,0,0,0,0,0
6.490054,0.2278111,-0.8764936,0.05862615,0.07130207,0,0,0,0,0,0,0,0,0,0,0,0,0,0,0,0,0,-0.08007813,-0.9936523,-0.1846924,0,0,0,0,0,0
6.500054,0.2348686,-0.8586179,0.04690064,0.05494076,0,0,0,0,0,0,0,0,0,0,0,0,0,0,0,0,0,-0.07519531,-0.9992676,-0.1826172,0,0,0,0,0,0
6.510054,0.2348686,-0.8586179,0.0402058,0.04250327,0,0,0,0,0,0,0,0,0,0,0,0,0,0,0,0,0,-0.07617188,-0.9915771,-0.1868896,0,0,0,0,0,0
6.520054,0.2344769,-0.8494983,0.03118804,0.03307822,0,0,0,0,0,0,0,0,0,0,0,0,0,0,0,0,0,-0.07226563,-0.996582,-0.1906738,0,0,0,0,0,0
6.530055,0.2344769,-0.8494983,0.02746559,0.02746559,0,0,0,0,0,0,0,0,0,0,0,0,0,0,0,0,0,-0.07092285,-0.9910889,-0.1821289,0,0,0,0,0,0
6.540055,0.2344769,-0.8494983,0.02362888,0.02219683,0,0,0,0,0,0,0,0,0,0,0,0,0,0,0,0,0,-0.07495117,-0.9935303,-0.1877441,0,0,0,0,0,0
6.550055,0.2344769,-0.8494983,0.01969063,0.01730388,0,0,0,0,0,0,0,0,0,0,0,0,0,0,0,0,0,-0.07312012,-1.00354,-0.1826172,0,0,0,0,0,0
6.560055,0.2340789,-0.8403814,0.01969063,0.01730388,0,0,0,0,0,0,0,0,0,0,0,0,0,0,0.00224897,-0.001499313,0.00224897,-0.07067871,-1.001831,-0.1835938,0,0,0,0,0,0
6.570055,0.2340789,-0.8403814,0.02175007,0.01677863,0,0,0,0,0,0,0,0,0,0,0,0,0,0,0,0,0,-0.0690918,-0.9974365,-0.1850586,0,0,0,0,0,0
6.580056,0.2336743,-0.8312674,0.02448199,0.01654189,0,0,0,0,0,0,0,0,0,0,0,0,0,0,0,0,0,-0.07177734,-0.9981689,-0.189209,0,0,0,0,0,0
6.590056,0.241034,-0.8225763,0.03525043,0.01977463,0,0,0,0,0,0,0,0,0,0,0,0,0,0,0,-0.0009995422,0.001749199,-0.06994629,-0.9975586,-0.1867676,0,0,0,0,0,0
6.600056,0.2406054,-0.8134753,0.04277619,0.02288029,0,0,0,0,0,0,0,0,0,0,0,0,0,0,0,0,0,-0.06811523,-1.000244,-0.1889648,0,0,0,0,0,0
6.610056,0.2470164,-0.7866522,0.04503901,0.01901647,0,0,0,0,0,0,0,0,0,0,0,0,0,0,0,0,0,-0.07141113,-0.9991455,-0.1844482,0,0,0,0,0,0
6.620057,0.252803,-0.7508626,0.05089094,0.01840736,0,0,0,0,0,0,0,0,0,0,0,0,0,0,0,0,0,-0.06762695,-0.9908447,-0.1790771,0,0,0,0,0,0
6.630057,0.2594723,-0.7332913,0.05934514,0.02058913,0,0,0,0,0,0,0,0,0,0,0,0,0,0,-0.007381084,-0.001614612,0.002998566,-0.07177734,-0.9932861,-0.1829834,0,0,0,0,0,0
6.640057,0.2861662,-0.6726763,0.05732573,0.01754869,0,0,0,0,0,0,0,0,0,0,0,0,0,0,-0.006247139,-0.0004997711,0.005497482,-0.07434082,-0.9891357,-0.1912842,0,0,0,0,0,0
6.650057,0.2911716,-0.637629,0.05549721,0.01472375,0,0,0,0,0,0,0,0,0,0,0,0,0,0,0,0,0,-0.07299805,-0.9874268,-0.1879883,0,0,0,0,0,0
6.660058,0.3105604,-0.5955452,0.05388167,0.01209589,0,0,0,0,0,0,0,0,0,0,0,0,0,0,0,0,0,-0.07275391,-0.9875488,-0.190918,0,0,0,0,0,0
6.670058,0.3304932,-0.5629278,0.05388167,0.01209589,0,0,0,0,0,0,0,0,0,0,0,0,0,0,-0.00224897,0.001249428,0.005997253,-0.07666016,-0.9743652,-0.1900635,0,0,0,0,0,0
6.680058,0.3356269,-0.5377248,0.05249975,0.009642811,0,0,0,0,0,0,0,0,0,0,0,0,0,0,0,0,0,-0.07446289,-0.9754639,-0.1916504,0,0,0,0,0,0
6.690058,0.355342,-0.5060932,0.05136992,0.00733856,0,0,0,0,0,0,0,0,0,0,0,0,0,0,0,0,0,-0.07824707,-0.9910889,-0.1876221,0,0,0,0,0,0
6.700058,0.3671501,-0.4740871,0.04992612,0.003056701,0,0,0,0,0,0,0,0,0,0,0,0,0,0,-0.001153396,0.002537472,0,-0.07324219,-0.9956055,-0.1821289,0,0,0,0,0,0
6.710059,0.3730282,-0.4582919,0.04959631,0,0,0,0,0,0,0,0,0,0,0,0,0,0,0,0,0,0,-0.07751465,-0.9960938,-0.1844482,0,0,0,0,0,0
6.720059,0.3767551,-0.4260501,0.03153272,-0.002102181,0,0,0,0,0,0,0,0,0,0,0,0,0,0,0,0,0,-0.07592773,-0.9959717,-0.1893311,0,0,0,0,0,0
6.730059,0.3814859,-0.4024852,0.0230957,-0.002685547,0,0,0,0,0,0,0,0,0,0,0,0,0,0,-0.00299883,0.001845434,0.002076113,-0.07861328,-1.000854,-0.1831055,0,0,0,0,0,0
6.740059,0.3873272,-0.3873272,0.02420748,-0.003940752,0,0,0,0,0,0,0,0,0,0,0,0,0,0,0,0,0,-0.07409668,-1.004028,-0.1845703,0,0,0,0,0,0
6.75006,0.3850589,-0.371183,0.007979404,-0.001841401,0,0,0,0,0,0,0,0,0,0,0,0,0,0,0,0,0,-0.08007813,-1.008179,-0.1831055,0,0,0,0,0,0
6.76006,0.3920622,-0.3643056,0.001550108,-0.000460843,0,0,0,0,0,0,0,0,0,0,0,0,0,0,0,0,0,-0.07397461,-1.003296,-0.18396,0,0,0,0,0,0
6.77006,0.397972,-0.3495233,0,0,0,0,0,0,0,0,0,0,0,0,0,0,0,0,-0.004997711,-0.002498855,0.008496109,-0.07531738,-0.9984131,-0.1851807,0,0,0,0,0,0
6.78006,0.3968253,-0.3416148,0,0,0,0,0,0,0,0,0,0,0,0,0,0,0,0,0,0,0,-0.07946777,-0.9991455,-0.1828613,0,0,0,0,0,0
6.790061,0.3956721,-0.3337409,0,0,0,0,0,0,0,0,0,0,0,0,0,0,0,0,0,0,0,-0.07702637,-0.99646,-0.1849365,0,0,0,0,0,0
6.800061,0.4027953,-0.327056,0,0,0,0,0,0,0,0,0,0,0,0,0,0,0,0,-0.004248401,-0.001749341,0.004998118,-0.07702637,-0.9923096,-0.1879883,0,0,0,0,0,0
6.810061,0.4016471,-0.319258,0,0,0,0,0,0,0,0,0,0,0,0,0,0,0,0,0,0,0,-0.0760498,-0.9887695,-0.1890869,0,0,0,0,0,0
6.820061,0.4004949,-0.311496,0,0,0,0,0,0,0,0,0,0,0,0,0,0,0,0,0,0,0,-0.07666016,-0.9897461,-0.1904297,0,0,0,0,0,0
6.830061,0.3993394,-0.303771,0,0,0,0,0,0,0,0,0,0,0,0,0,0,0,0,0,0,0,-0.07897949,-0.9880371,-0.1915283,0,0,0,0,0,0
6.840062,0.3970215,-0.2884344,0,0,0,0,0,0,0,0,0,0,0,0,0,0,0,0,0,0,0,-0.07739258,-0.9884033,-0.1888428,0,0,0,0,0,0
6.850062,0.3946996,-0.2732536,0,0,0,0,0,0,0,0,0,0,0,0,0,0,0,0,0,0,0,-0.07739258,-0.9890137,-0.1933594,0,0,0,0,0,0
6.860062,0.3923811,-0.2582337,0,0,0,0,0,0,0,0,0,0,0,0,0,0,0,0,0.0004613585,-0.001153396,0.00299883,-0.07897949,-0.9902344,-0.1911621,0,0,0,0,0,0
6.870062,0.3912255,-0.2507856,0,0,0,0,0,0,0,0,0,0,0,0,0,0,0,0,0,0,0,-0.08239746,-0.9927979,-0.1872559,0,0,0,0,0,0
6.880063,0.3889271,-0.2360156,0,0,0,0,0,0,0,0,0,0,0,0,0,0,0,0,0,0,0,-0.07739258,-0.9932861,-0.1860352,0,0,0,0,0,0
6.890063,0.3877867,-0.2286947,0,0,0,0,0,0,0,0,0,0,0,0,0,0,0,0,0,0,0,-0.07702637,-0.994873,-0.1885986,0,0,0,0,0,0
6.900063,0.3866536,-0.221417,0,0,0,0,0,0,0,0,0,0,0,0,0,0,0,0,0,0,0,-0.07995605,-0.996582,-0.1904297,0,0,0,0,0,0
6.910063,0.3844151,-0.2069928,0,0,0,0,0,0,0,0,0,0,0,0,0,0,0,0,0,0,0,-0.0802002,-0.9920654,-0.1877441,0,0,0,0,0,0
6.920063,0.3833124,-0.1998466,0,0,0,0,0,0,0,0,0,0,0,0,0,0,0,0,0,0,0,-0.078125,-0.9904785,-0.1901855,0,0,0,0,0,0
6.930064,0.3811471,-0.1856871,0,0,0,0,0,0,0,0,0,0,0,0,0,0,0,0,0,0,0,-0.08007813,-0.9957275,-0.1861572,0,0,0,0,0,0
6.940064,0.3800876,-0.1786736,0,0,0,0,0,0,0,0,0,0,0,0,0,0,0,0,-0.0007496566,0,0.001999084,-0.07714844,-0.9951172,-0.1861572,0,0,0,0,0,0
6.950064,0.3878147,-0.1727242,0,0,0,0,0,0,0,0,0,0,0,0,0,0,0,0,0,0,0,-0.07788086,-0.9971924,-0.1868896,0,0,0,0,0,0
6.960064,0.3770202,-0.1578974,0,0,0,0,0,0,0,0,0,0,0,0,0,0,0,0,0,-0.0004997711,0.002498855,-0.08007813,-0.9993896,-0.1829834,0,0,0,0,0,0
6.970065,0.3760403,-0.1510589,0,0,0,0,0,0,0,0,0,0,0,0,0,0,0,0,0,0,0,-0.07727051,-1.002686,-0.1853027,0,0,0,0,0,0
6.980065,0.3750843,-0.1442632,0,0,0,0,0,0,0,0,0,0,0,0,0,0,0,0,0,0,0,-0.07958984,-1.00415,-0.1842041,0,0,0,0,0,0
6.990065,0.3830519,-0.1384137,0,0,0,0,0,0,0,0,0,0,0,0,0,0,0,0,-0.005997131,0.0002306589,0,-0.08215332,-1.000854,-0.1846924,0,0,0,0,0,0
7.000065,0.3821742,-0.1316735,0,0,0,0,0,0,0,0,0,0,0,0,0,0,0,0,0,0,0,-0.08349609,-0.9981689,-0.1853027,0,0,0,0,0,0
7.010066,0.3813252,-0.1249721,0,0,0,0,0,0,0,0,0,0,0,0,0,0,0,0,0,0,0,-0.07727051,-0.9914551,-0.1888428,0,0,0,0,0,0
7.020066,0.3805065,-0.1183088,0,0,0,0,0,0,0,0,0,0,0,0,0,0,0,0,-0.004382906,0,-0.00299883,-0.07617188,-0.9888916,-0.1942139,0,0,0,0,0,0
7.030066,0.3797198,-0.1116823,0,0,0,0,0,0,0,0,0,0,0,0,0,0,0,0,0,0,0,-0.07116699,-0.989502,-0.1942139,0,0,0,0,0,0
7.040066,0.3789666,-0.1050916,0,0,0,0,0,0,0,0,0,0,0,0,0,0,0,0,0,0,0,-0.07641602,-0.987793,-0.192627,0,0,0,0,0,0
7.050066,0.3782484,-0.09853529,0,0,0,0,0,0,0,0,0,0,0,0,0,0,0,0,0.005997253,-0.001999084,0,-0.07824707,-0.9880371,-0.1912842,0,0,0,0,0,0
7.060067,0.3775668,-0.09201207,0,0,0,0,0,0,0,0,0,0,0,0,0,0,0,0,0,0,0,-0.08056641,-0.9898682,-0.1884766,0,0,0,0,0,0
7.070067,0.3775668,-0.09201207,0,0,0,0,0,0,0,0,0,0,0,0,0,0,0,0,0,0,0,-0.0859375,-0.9899902,-0.1849365,0,0,0,0,0,0
7.080067,0.3860121,-0.08613493,0,0,0,0,0,0,0,0,0,0,0,0,0,0,0,0,0.003748283,-0.003998169,0.001999084,-0.08679199,-0.9920654,-0.182251,0,0,0,0,0,0
7.090067,0.3860121,-0.08613493,0,0,0,0,0,0,0,0,0,0,0,0,0,0,0,0,0,0,0,-0.0871582,-0.9952393,-0.1832275,0,0,0,0,0,0
7.100068,0.3860121,-0.08613493,0,0,0,0,0,0,0,0,0,0,0,0,0,0,0,0,0,0,0,-0.08874512,-0.9997559,-0.1790771,0,0,0,0,0,0
7.110068,0.3860121,-0.08613493,0,0,0,0,0,0,0,0,0,0,0,0,0,0,0,0,0.00224897,-0.002748741,0.002748741,-0.08398438,-1.003662,-0.175293,0,0,0,0,0,0
7.120068,0.3860121,-0.08613493,0,0,0,0,0,0,0,0,0,0,0,0,0,0,0,0,0,0,0,-0.08605957,-1.009155,-0.1746826,0,0,0,0,0,0
7.130068,0.3854264,-0.07963356,0,0,0,0,0,0,0,0,0,0,0,0,0,0,0,0,0,0,0,-0.08337402,-1.008179,-0.1859131,0,0,0,0,0,0
7.140069,0.3854264,-0.07963356,0,0,0,0,0,0,0,0,0,0,0,0,0,0,0,0,0,0,0,-0.09179688,-1.004395,-0.1846924,0,0,0,0,0,0
7.150069,0.3854264,-0.07963356,0,0,0,0,0,0,0,0,0,0,0,0,0,0,0,0,0,0,0,-0.07458496,-0.9951172,-0.1960449,0,0,0,0,0,0
7.160069,0.3854264,-0.07963356,0,0,0,0,0,0,0,0,0,0,0,0,0,0,0,0,0,0,0,-0.08093262,-0.9884033,-0.1972656,0,0,0,0,0,0
7.170069,0.3854264,-0.07963356,0,0,0,0,0,0,0,0,0,0,0,0,0,0,0,0,-0.003998169,0.001499313,-0.005747368,-0.0736084,-0.9903564,-0.1956787,0,0,0,0,0,0
7.180069,0.3854264,-0.07963356,0,0,0,0,0,0,0,0,0,0,0,0,0,0,0,0,0,0,0,-0.07702637,-0.9766846,-0.2020264,0,0,0,0,0,0
7.19007,0.3854264,-0.07963356,0,0,0,0,0,0,0,0,0,0,0,0,0,0,0,0,0.005305154,-0.0006919767,-0.001845271,-0.07507324,-0.9794922,-0.1977539,0,0,0,0,0,0
7.20007,0.3854264,-0.07963356,0,0,0,0,0,0,0,0,0,0,0,0,0,0,0,0,0,0,0,-0.07568359,-0.9893799,-0.1911621,0,0,0,0,0,0
7.21007,0.3854264,-0.07963356,0,0,0,0,0,0,0,0,0,0,0,0,0,0,0,0,0,0,0,-0.0645752,-0.9886475,-0.190918,0,0,0,0,0,0
7.22007,0.3854264,-0.07963356,0,0,0,0,0,0,0,0,0,0,0,0,0,0,0,0,0.005247597,0.003748283,0,-0.07739258,-0.9963379,-0.1868896,0,0,0,0,0,0
7.230071,0.3854264,-0.07963356,0,0,0,0,0,0,0,0,0,0,0,0,0,0,0,0,0,0,0,-0.06982422,-1.001709,-0.1884766,0,0,0,0,0,0
7.240071,0.3854264,-0.07963356,0,0,0,0,0,0,0,0,0,0,0,0,0,0,0,0,0,0,0,-0.08776855,-1,-0.1855469,0,0,0,0,0,0
7.250071,0.3854264,-0.07963356,0,0,0,0,0,0,0,0,0,0,0,0,0,0,0,0,0.0009996236,-0.0002499059,-0.003498683,-0.07885742,-1.003662,-0.1896973,0,0,0,0,0,0
7.260071,0.3854264,-0.07963356,0,0,0,0,0,0,0,0,0,0,0,0,0,0,0,0,0,0,0,-0.08422852,-1.003052,-0.1894531,0,0,0,0,0,0
7.270072,0.3854264,-0.07963356,0,0,0,0,0,0,0,0,0,0,0,0,0,0,0,0,0,0,0,-0.07861328,-1.003784,-0.1898193,0,0,0,0,0,0
7.280072,0.3854264,-0.07963356,0,0,0,0,0,0,0,0,0,0,0,0,0,0,0,0,-0.0009995422,-0.003498398,-0.001499313,-0.07531738,-1.001099,-0.1866455,0,0,0,0,0,0
7.290072,0.3854264,-0.07963356,0,0,0,0,0,0,0,0,0,0,0,0,0,0,0,0,0,0,0,-0.0769043,-0.9993896,-0.184082,0,0,0,0,0,0
7.300072,0.3854264,-0.07963356,0,0,0,0,0,0,0,0,0,0,0,0,0,0,0,0,0,0,0,-0.07763672,-0.9959717,-0.1816406,0,0,0,0,0,0
7.310072,0.3854264,-0.07963356,0,0,0,0,0,0,0,0,0,0,0,0,0,0,0,0,-0.009245765,0.001499313,0.0007496566,-0.07788086,-0.9989014,-0.1711426,0,0,0,0,0,0
7.320073,0.3848804,-0.07315909,0,0,0,0,0,0,0,0,0,0,0,0,0,0,0,0,0,0,0,-0.06677246,-1.009399,-0.1508789,0,0,0,0,0,0
7.330073,0.3839124,-0.06028377,0,0,0,0,0,0,0,0,0,0,0,0,0,0,0,0,0,0,0,-0.1187744,-1.01709,-0.1436768,0,0,0,0,0,0
7.340073,0.3831168,-0.04749382,0,0,0,0,0,0,0,0,0,0,0,0,0,0,0,0,0,0,0,-0.08764648,-0.9526367,-0.2342529,0,0,0,0,0,0
7.350073,0.382786,-0.04112577,0,0,0,0,0,0,0,0,0,0,0,1,0,0,0,0,0,0,0,-0.01940918,-0.9931641,-0.09570313,0,0,0,0,0,0
7.360074,0.391474,-0.02864444,0,0,0,0,0,0,0,0,0,0,0,1,0,0,0,0,0,0,0,-0.06359863,-0.9816895,-0.1911621,0,0,0,0,0,0
7.370074,0.4003717,-0.01601487,0,0,0,0,0,0,0,0,0,0,0,1,0,0,0,0,-0.03098833,0,-0.002748965,-0.04870605,-0.9573975,-0.2490234,0,0,0,0,0,0
7.380074,0.4003717,-0.01601487,0,0,0,0,0,0,0,0,0,0,0,1,0,0,0,0,0,0,0,-0.06225586,-0.9903564,-0.2561035,0,0,0,0,0,0
7.390074,0.4095071,-0.009673396,0,0,0,0,0,0,0,0,0,0,0,1,0,0,0,0,0,0,0,-0.07067871,-0.9733887,-0.2149658,0,0,0,0,0,0
7.400074,0.4095071,-0.009673396,0,0,0,0,0,0,0,0,0,0,0,1,0,0,0,0,0.008496801,-0.009996235,0.01024614,-0.0690918,-0.9630127,-0.232666,0,0,0,0,0,0
7.410075,0.4095071,-0.009673396,0,0,0,0,0,0,0,0,0,0,0,1,0,0,0,0,0,0,0,-0.07275391,-0.9760742,-0.2161865,0,0,0,0,0,0
7.420075,0.4095071,-0.009673396,0,0,0,0,0,0,0,0,0,0,0,1,0,0,0,0,0,0,0,-0.07421875,-0.9952393,-0.1655273,0,0,0,0,0,0
7.430075,0.4095071,-0.009673396,0,0,0,0,0,0,0,0,0,0,0,1,0,0,0,0,0.01474325,0.008995879,0.01349382,-0.06335449,-0.9949951,-0.1794434,0,0,0,0,0,0
7.440075,0.4193232,0.03575625,-0.04445881,-0.1013661,0,0,0,0,0,0,0,0,0,1,0,0,0,0,0,0,0,-0.1339111,-1.051514,0.07849121,0,0,0,0,0,0
7.450076,0.4193232,0.03575625,-0.04445881,-0.1013661,0,0,0,0,0,0,0,0,0,1,0,0,0,0,-0.00224897,0.0007496566,-0.004248055,-0.08569336,-0.9824219,-0.1783447,0,0,0,0,0,0
7.460076,0.4193232,0.03575625,-0.04445881,-0.1013661,0,0,0,0,0,0,0,0,0,1,0,0,0,0,0,0,0,-0.04870605,-0.9968262,-0.2010498,0,0,0,0,0,0
7.470076,0.4193232,0.03575625,-0.04445881,-0.1013661,0,0,0,0,0,0,0,0,0,1,0,0,0,0,0,0,0,-0.06079102,-0.9871826,-0.2056885,0,0,0,0,0,0
7.480076,0.4193232,0.03575625,-0.04445881,-0.1013661,0,0,0,0,0,0,0,0,0,1,0,0,0,0,0.00449794,0,0.007246681,-0.08508301,-0.9759521,-0.1999512,0,0,0,0,0,0
7.490077,0.4193232,0.03575625,-0.04445881,-0.1013661,0,0,0,0,0,0,0,0,0,1,0,0,0,0,0,0,0,-0.06616211,-0.9923096,-0.2106934,0,0,0,0,0,0
7.500077,0.4285312,0.03598354,-0.04841847,-0.1181411,0,0,0,0,0,0,0,0,0,1,0,0,0,0,0,0,0,-0.06970215,-0.9897461,-0.1950684,0,0,0,0,0,0
7.510077,0.4193232,0.03575625,-0.05024987,-0.1266297,0,0,0,0,0,0,0,0,0,1,0,0,0,0,0.01776074,-0.002767907,0.007611744,-0.08129883,-0.9935303,-0.2039795,0,0,0,0,0,0
7.520077,0.4285312,0.03598354,-0.05364781,-0.1437761,0,0,0,0,0,0,0,0,0,1,0,0,0,0,0,0,0,-0.07592773,-1.007202,-0.2011719,0,0,0,0,0,0
7.530077,0.4285312,0.03598354,-0.05672994,-0.161113,0,0,0,0,0,0,0,0,0,0,0,0,0,0,0,0,0,-0.08093262,-1.014648,-0.1676025,0,0,0,0,0,0
7.540078,0.4193232,0.03575625,-0.05953536,-0.1786061,0,0,0,0,0,0,0,0,0,0,0,0,0,0,0,0,0,-0.09606934,-0.9230957,-0.1733398,0,0,0,0,0,0
7.550078,0.4193232,0.03575625,-0.06084495,-0.1874024,0,0,0,0,0,0,0,0,0,0,0,0,0,0,0,0,0,-0.03942871,-1.020386,-0.2211914,0,0,0,0,0,0
7.560078,0.4195745,0.0422827,-0.06554619,-0.2228571,0,0,0,0,0,0,0,0,0,0,0,0,0,0,0,0,0,-0.04321289,-0.9992676,-0.244873,0,0,0,0,0,0
7.570078,0.4195745,0.0422827,-0.0695283,-0.2586453,0,0,0,0,0,0,0,0,0,0,0,0,0,0,0.00449794,0.003498398,-0.0002498855,-0.102417,-1.025879,-0.1818848,0,0,0,0,0,0
7.580079,0.4195745,0.0422827,-0.07213332,-0.2856479,0,0,0,0,0,0,0,0,0,0,0,0,0,0,0,0,0,-0.09082031,-1.001465,-0.1550293,0,0,0,0,0,0
7.590079,0.4195745,0.0422827,-0.07371613,-0.3037105,0,0,0,0,0,0,0,0,0,0,0,0,0,0,0,0,0,-0.08837891,-0.9898682,-0.194458,0,0,0,0,0,0
7.600079,0.4198662,0.04882165,-0.07446605,-0.3127574,0,0,0,0,0,0,0,0,0,0,0,0,0,0,-0.006996796,-0.001499313,-0.002998627,-0.07946777,-0.998291,-0.1964111,0,0,0,0,0,0
7.610079,0.4198662,0.04882165,-0.07519014,-0.3218138,0,0,0,0,0,0,0,0,0,0,0,0,0,0,0,0,0,-0.0892334,-0.9790039,-0.1560059,0,0,0,0,0,0
7.62008,0.4201978,0.05537491,-0.07519014,-0.3218138,0,0,0,0,0,0,0,0,0,0,0,0,0,0,0,0,0,-0.07995605,-0.9914551,-0.1783447,0,0,0,0,0,0
7.63008,0.4201978,0.05537491,-0.0690272,-0.3211266,0,0,0,0,0,0,0,0,0,0,0,0,0,0,0,0,0,-0.08776855,-0.9891357,-0.1834717,0,0,0,0,0,0
7.64008,0.4205687,0.06194422,-0.05680534,-0.3199038,0,0,0,0,0,0,0,0,0,0,0,0,0,0,0,0,0,-0.08813477,-0.9803467,-0.1782227,0,0,0,0,0,0
7.65008,0.420978,0.0685313,-0.03829375,-0.3092957,0,0,0,0,0,0,0,0,0,0,0,0,0,0,-0.01868502,-0.006459019,0.003690868,-0.07202148,-0.9713135,-0.211792,0,0,0,0,0,0
7.66008,0.420978,0.0685313,-0.02616126,-0.2994011,0,0,0,0,0,0,0,0,0,1,0,0,0,0,0,0,0,-0.05236816,-0.9174805,-0.3457031,0,0,0,0,0,0
7.670081,0.420978,0.0685313,-0.01416674,-0.2805015,0,0,0,0,0,0,0,0,0,1,0,0,0,0,0,0,0,-0.1018066,-0.9667969,-0.185791,0,0,0,0,0,0
7.680081,0.4214249,0.07513777,0,-0.2802768,0,0,0,0,0,0,0,0,0,1,0,0,0,0,-0.004248055,-0.008745994,0.005747368,-0.06323242,-0.9951172,-0.2139893,0,0,0,0,0,0
7.690081,0.4219085,0.08176522,0.00283117,-0.2802858,0,0,0,0,0,0,0,0,0,1,0,0,0,0,0,0,0,-0.078125,-0.9749756,-0.1817627,0,0,0,0,0,0
7.700081,0.422428,0.08841515,0.008495691,-0.2803578,0,0,0,0,0,0,0,0,0,1,0,0,0,0,0,0,0,-0.08398438,-0.9785156,-0.2019043,0,0,0,0,0,0
7.710082,0.4138862,0.09450946,0.01416674,-0.2805015,0,0,0,0,0,0,0,0,0,1,0,0,0,0,0.00449794,-0.004248055,0.007996337,-0.07849121,-0.9963379,-0.2059326,0,0,0,0,0,0
7.720082,0.4138862,0.09450946,0.01984863,-0.2807163,0,0,0,0,0,0,0,0,0,1,0,0,0,0,0,0,0,-0.07580566,-0.9914551,-0.2017822,0,0,0,0,0,0
7.730082,0.4138862,0.09450946,0.02032972,-0.2991374,0,0,0,0,0,0,0,0,0,1,0,0,0,0,0,0,0,-0.08215332,-0.9801025,-0.1977539,0,0,0,0,0,0
7.740082,0.4138862,0.09450946,0.02055662,-0.3083493,0,0,0,0,0,0,0,0,0,1,0,0,0,0,0,0,0,-0.08947754,-0.9798584,-0.2008057,0,0,0,0,0,0
7.750082,0.4047964,0.09391275,0.02055662,-0.3083493,0,0,0,0,0,0,0,0,0,0,0,0,0,0,0,0,0,-0.07910156,-0.9989014,-0.1967773,0,0,0,0,0,0
7.760083,0.4054193,0.100544,0.02077509,-0.3175621,0,0,0,0,0,0,0,0,0,0,0,0,0,0,0,0,0,-0.09472656,-0.9840088,-0.2810059,0,0,0,0,0,0
7.770083,0.3963546,0.09989425,0.02077509,-0.3175621,0,0,0,0,0,0,0,0,0,0,0,0,0,0,0.01014899,0.001614612,0.0002306589,-0.04675293,-1.026123,-0.168457,0,0,0,0,0,0
7.780083,0.3963546,0.09989425,0.0267314,-0.3178067,0,0,0,0,0,0,0,0,0,0,0,0,0,0,0,0,0,-0.09765625,-0.9902344,-0.1738281,0,0,0,0,0,0
7.790083,0.3872975,0.09922496,0.02700094,-0.3270114,0,0,0,0,0,0,0,0,0,0,0,0,0,0,0,0,0,-0.08093262,-1.010498,-0.2043457,0,0,0,0,0,0
7.800084,0.3872975,0.09922496,0.02726087,-0.3362174,0,0,0,0,0,0,0,0,0,0,0,0,0,0,-0.0009995422,0.0009995422,-0.004248055,-0.09301758,-1.006836,-0.1967773,0,0,0,0,0,0
7.810084,0.3879944,0.1058167,0.03334688,-0.3365003,0,0,0,0,0,0,0,0,0,0,0,0,0,0,0,0,0,-0.08459473,-0.994751,-0.1876221,0,0,0,0,0,0
7.820084,0.3789666,0.1050916,0.03365198,-0.3456976,0,0,0,0,0,0,0,0,0,0,0,0,0,0,0,0,0,-0.08325195,-1.010132,-0.1824951,0,0,0,0,0,0
7.830084,0.3789666,0.1050916,0.03365198,-0.3456976,0,0,0,0,0,0,0,0,0,0,0,0,0,0,-0.01574279,-0.004747826,-0.001249428,-0.08398438,-1.002441,-0.1877441,0,0,0,0,0,0
7.840085,0.3789666,0.1050916,0.03365198,-0.3456976,0,0,0,0,0,0,0,0,0,0,0,0,0,0,0,0,0,-0.09082031,-1.000244,-0.1916504,0,0,0,0,0,0
7.850085,0.3797198,0.1116823,0.03365198,-0.3456976,0,0,0,0,0,0,0,0,0,0,0,0,0,0,0,0,0,-0.08422852,-0.9907227,-0.1906738,0,0,0,0,0,0
7.860085,0.3797198,0.1116823,0.03944951,-0.3368381,0,0,0,0,0,0,0,0,0,0,0,0,0,0,-0.01174462,-0.01574279,-0.002748741,-0.05749512,-0.9206543,-0.3443604,0,0,0,0,0,0
7.870085,0.3797198,0.1116823,0.03907809,-0.3276548,0,0,0,0,0,0,0,0,0,1,0,0,0,0,0,0,0,-0.04772949,-0.9645996,-0.2640381,0,0,0,0,0,0
7.880085,0.3797198,0.1116823,0.03907809,-0.3276548,0,0,0,0,0,0,0,0,0,1,0,0,0,0,0,0,0,-0.06274414,-0.9610596,-0.2175293,0,0,0,0,0,0
7.890086,0.3797198,0.1116823,0.03869309,-0.3184739,0,0,0,0,0,0,0,0,0,1,0,0,0,0,0,0,0,-0.08081055,-0.9593506,-0.1905518,0,0,0,0,0,0
7.900086,0.3797198,0.1116823,0.04470485,-0.3188946,0,0,0,0,0,0,0,0,0,1,0,0,0,0,0,0,0,-0.07312012,-0.980957,-0.2080078,0,0,0,0,0,0
7.910086,0.3797198,0.1116823,0.04470485,-0.3188946,0,0,0,0,0,0,0,0,0,1,0,0,0,0,0,0,0,-0.07849121,-0.9945068,-0.1748047,0,0,0,0,0,0
7.920086,0.3707245,0.1109005,0.0507413,-0.3193717,0,0,0,0,0,0,0,0,0,1,0,0,0,0,0,0,0,-0.0793457,-0.9890137,-0.1806641,0,0,0,0,0,0
7.930087,0.3715348,0.1174939,0.05680534,-0.3199038,0,0,0,0,0,0,0,0,0,1,0,0,0,0,0,0,0,-0.08105469,-0.9979248,-0.1993408,0,0,0,0,0,0
7.940087,0.3545231,0.1223575,0.05680534,-0.3199038,0,0,0,0,0,0,0,0,0,0,0,0,0,0,0,0,0,-0.08496094,-0.9975586,-0.171875,0,0,0,0,0,0
7.950087,0.347556,0.1346388,0.06289976,-0.3204892,0,0,0,0,0,0,0,0,0,0,0,0,0,0,-0.002748741,0.01149474,-0.007996337,-0.0994873,-0.9462891,-0.2796631,0,0,0,0,0,0
7.960087,0.3397671,0.1402708,0.06289976,-0.3204892,0,0,0,0,0,0,0,0,0,0,0,0,0,0,0,0,0,-0.06018066,-1.037842,-0.1922607,0,0,0,0,0,0
7.970088,0.3309862,0.1391998,0.06289976,-0.3204892,0,0,0,0,0,0,0,0,0,0,0,0,0,0,0,0,0,-0.09985352,-0.9748535,-0.1662598,0,0,0,0,0,0
7.980088,0.3309862,0.1391998,0.06289976,-0.3204892,0,0,0,0,0,0,0,0,0,0,0,0,0,0,0.004997711,0,-0.003498398,-0.06726074,-0.9997559,-0.2010498,0,0,0,0,0,0
7.990088,0.3309862,0.1391998,0.06289976,-0.3204892,0,0,0,0,0,0,0,0,0,0,0,0,0,0,0,0,0,-0.07739258,-0.9848633,-0.1813965,0,0,0,0,0,0
8.000088,0.322227,0.1380973,0.06289976,-0.3204892,0,0,0,0,0,0,0,0,0,0,0,0,0,0,0,0,0,-0.07495117,-0.9901123,-0.1875,0,0,0,0,0,0
8.010088,0.322227,0.1380973,0.0690272,-0.3211266,0,0,0,0,0,0,0,0,0,0,0,0,0,0,0,0,0,-0.08044434,-1.005981,-0.1866455,0,0,0,0,0,0
8.020088,0.322227,0.1380973,0.0690272,-0.3211266,0,0,0,0,0,0,0,0,0,0,0,0,0,0,0,0,0,-0.07629395,-1.003662,-0.1635742,0,0,0,0,0,0
8.030088,0.322227,0.1380973,0.0690272,-0.3211266,0,0,0,0,0,0,0,0,0,0,0,0,0,0,0,0,0,-0.08288574,-0.9970703,-0.1766357,0,0,0,0,0,0
8.040089,0.322227,0.1380973,0.0690272,-0.3211266,0,0,0,0,0,0,0,0,0,0,0,0,0,0,-0.01753162,-0.003690868,0.002537472,-0.09130859,-1.017578,-0.1679688,0,0,0,0,0,0
8.050089,0.322227,0.1380973,0.0690272,-0.3211266,0,0,0,0,0,0,0,0,0,0,0,0,0,0,0,0,0,-0.08239746,-0.9937744,-0.1804199,0,0,0,0,0,0
8.060089,0.3233585,0.1447414,0.06765416,-0.302973,0,0,0,0,0,0,0,0,0,1,0,0,0,0,0,0,0,-0.05004883,-0.9827881,-0.1315918,0,0,0,0,0,0
8.070089,0.3233585,0.1447414,0.06617837,-0.2848547,0,0,0,0,0,0,0,0,0,1,0,0,0,0,-0.02214325,-0.00830372,-0.001845271,-0.07116699,-0.9805908,-0.2054443,0,0,0,0,0,0
8.08009,0.3320856,0.1458694,0.06539839,-0.2758106,0,0,0,0,0,0,0,0,0,1,0,0,0,0,0,0,0,-0.08215332,-0.979126,-0.2182617,0,0,0,0,0,0
8.09009,0.3320856,0.1458694,0.06374619,-0.2577564,0,0,0,0,0,0,0,0,0,1,0,0,0,0,0,0,0,-0.08337402,-0.9700928,-0.227417,0,0,0,0,0,0
8.10009,0.3397671,0.1402708,0.06287039,-0.2487481,0,0,0,0,0,0,0,0,0,1,0,0,0,0,0.007246681,-0.01074508,-0.0007496566,-0.07189941,-0.9733887,-0.1873779,0,0,0,0,0,0
8.11009,0.3397671,0.1402708,0.06287039,-0.2487481,0,0,0,0,0,0,0,0,0,1,0,0,0,0,0,0,0,-0.06726074,-0.9770508,-0.2039795,0,0,0,0,0,0
8.12009,0.3387249,0.1336254,0.06287039,-0.2487481,0,0,0,0,0,0,0,0,0,1,0,0,0,0,0,0,0,-0.07495117,-0.9864502,-0.1947021,0,0,0,0,0,0
8.130091,0.3387249,0.1336254,0.06287039,-0.2487481,0,0,0,0,0,0,0,0,0,1,0,0,0,0,0.01424348,0.008745994,0,-0.07409668,-0.9832764,-0.1800537,0,0,0,0,0,0
8.140091,0.3387249,0.1336254,0.06287039,-0.2487481,0,0,0,0,0,0,0,0,0,1,0,0,0,0,0,0,0,-0.07446289,-0.9893799,-0.1975098,0,0,0,0,0,0
8.150091,0.3387249,0.1336254,0.06287039,-0.2487481,0,0,0,0,0,0,0,0,0,0,0,0,0,0,0,0,0,-0.07165527,-0.9969482,-0.1936035,0,0,0,0,0,0
8.160091,0.3387249,0.1336254,0.06287039,-0.2487481,0,0,0,0,0,0,0,0,0,0,0,0,0,0,0,0,0,-0.08068848,-1.027466,-0.1364746,0,0,0,0,0,0
8.170092,0.3387249,0.1336254,0.06287039,-0.2487481,0,0,0,0,0,0,0,0,0,0,0,0,0,0,0,0,0,-0.08239746,-1.040039,-0.2346191,0,0,0,0,0,0
8.180092,0.3387249,0.1336254,0.06374619,-0.2577564,0,0,0,0,0,0,0,0,0,0,0,0,0,0,0,0,0,-0.08752441,-0.9885254,-0.177124,0,0,0,0,0,0
8.190092,0.3387249,0.1336254,0.06458823,-0.2667775,0,0,0,0,0,0,0,0,0,0,0,0,0,0,0,0,0,-0.07275391,-1.028931,-0.1854248,0,0,0,0,0,0
8.200092,0.3387249,0.1336254,0.06539839,-0.2758106,0,0,0,0,0,0,0,0,0,0,0,0,0,0,0,0,0,-0.08972168,-1.009277,-0.1821289,0,0,0,0,0,0
8.210093,0.3387249,0.1336254,0.06539839,-0.2758106,0,0,0,0,0,0,0,0,0,0,0,0,0,0,0,0,0,-0.08288574,-1.011108,-0.1971436,0,0,0,0,0,0
8.220093,0.3387249,0.1336254,0.06617837,-0.2848547,0,0,0,0,0,0,0,0,0,0,0,0,0,0,0,0,0,-0.07592773,-0.9995117,-0.1818848,0,0,0,0,0,0
8.230093,0.3387249,0.1336254,0.06026742,-0.2841178,0,0,0,0,0,0,0,0,0,0,0,0,0,0,0,0,0,-0.07983398,-0.9995117,-0.177002,0,0,0,0,0,0
8.240093,0.3387249,0.1336254,0.06026742,-0.2841178,0,0,0,0,0,0,0,0,0,0,0,0,0,0,0,0,0,-0.07141113,-1.006714,-0.1505127,0,0,0,0,0,0
8.250093,0.3387249,0.1336254,0.06026742,-0.2841178,0,0,0,0,0,0,0,0,0,0,0,0,0,0,0,0,0,-0.08544922,-0.9885254,-0.1733398,0,0,0,0,0,0
8.260094,0.3387249,0.1336254,0.06026742,-0.2841178,0,0,0,0,0,0,0,0,0,0,0,0,0,0,-0.02798718,-0.004248055,0.001499313,-0.09179688,-1.005493,-0.1651611,0,0,0,0,0,0
8.270094,0.347556,0.1346388,0.05373681,-0.2743406,0,0,0,0,0,0,0,0,0,0,0,0,0,0,-0.03048604,-0.008745994,-0.00224897,-0.08154297,-0.9445801,-0.2813721,0,0,0,0,0,0
8.280094,0.3545231,0.1223575,0.05304987,-0.2652493,0,0,0,0,0,0,0,0,0,1,0,0,0,0,-0.02823707,-0.01049519,-0.002748741,-0.1337891,-0.9276123,-0.2478027,0,0,0,0,0,0
8.290094,0.3545231,0.1223575,0.04602497,-0.246369,0,0,0,0,0,0,0,0,0,1,0,0,0,0,-0.01637678,-0.008534378,-0.002998566,-0.07287598,-0.9692383,-0.222168,0,0,0,0,0,0
8.300095,0.3536288,0.11579,0.0453221,-0.2372745,0,0,0,0,0,0,0,0,0,1,0,0,0,0,0,0,0,-0.07653809,-0.9639893,-0.2137451,0,0,0,0,0,0
8.310095,0.3617404,0.1100949,0.03922058,-0.2274794,0,0,0,0,0,0,0,0,0,1,0,0,0,0,0,0,0,-0.07739258,-0.9692383,-0.1988525,0,0,0,0,0,0
8.320095,0.3692079,0.09782433,0.03922058,-0.2274794,0,0,0,0,0,0,0,0,0,1,0,0,0,0,0.008246895,-0.005747836,0.001499435,-0.07165527,-0.9810791,-0.2128906,0,0,0,0,0,0
8.330095,0.368505,0.09133885,0.03922058,-0.2274794,0,0,0,0,0,0,0,0,0,1,0,0,0,0,0,0,0,-0.0715332,-0.9785156,-0.1977539,0,0,0,0,0,0
8.340096,0.376319,0.07905861,0.03922058,-0.2274794,0,0,0,0,0,0,0,0,0,1,0,0,0,0,0,0,0,-0.07995605,-0.9788818,-0.199707,0,0,0,0,0,0
8.350096,0.3843754,0.06670978,0.03922058,-0.2274794,0,0,0,0,0,0,0,0,0,1,0,0,0,0,0.01874142,0.008246223,-0.002748741,-0.08227539,-1.007568,-0.1853027,0,0,0,0,0,0
8.360096,0.3834925,0.05387912,0.03922058,-0.2274794,0,0,0,0,0,0,0,0,0,0,0,0,0,0,0,0,0,-0.07385254,-1.008911,-0.1657715,0,0,0,0,0,0
8.370096,0.3923012,0.04784161,0.03922058,-0.2274794,0,0,0,0,0,0,0,0,0,0,0,0,0,0,0,0,0,-0.1037598,-0.9570313,-0.2687988,0,0,0,0,0,0
8.380096,0.3919809,0.04142888,0.03922058,-0.2274794,0,0,0,0,0,0,0,0,0,0,0,0,0,0,0,0,0,-0.04431152,-1.029297,-0.1953125,0,0,0,0,0,0
8.390097,0.3917049,0.03503053,0.03922058,-0.2274794,0,0,0,0,0,0,0,0,0,0,0,0,0,0,0,0,0,-0.1013184,-0.9838867,-0.1781006,0,0,0,0,0,0
8.400097,0.391474,0.02864444,0.03922058,-0.2274794,0,0,0,0,0,0,0,0,0,0,0,0,0,0,0,0,0,-0.07470703,-1.014282,-0.2156982,0,0,0,0,0,0
8.410097,0.3912885,0.02226845,0.03922058,-0.2274794,0,0,0,0,0,0,0,0,0,0,0,0,0,0,0,0,0,-0.08374023,-1.005493,-0.1861572,0,0,0,0,0,0
8.420097,0.3912885,0.02226845,0.03922058,-0.2274794,0,0,0,0,0,0,0,0,0,0,0,0,0,0,0,0,0,-0.07434082,-0.9891357,-0.1960449,0,0,0,0,0,0
8.430098,0.3911491,0.01590037,0.03922058,-0.2274794,0,0,0,0,0,0,0,0,0,0,0,0,0,0,0,0,0,-0.07543945,-1.01062,-0.1945801,0,0,0,0,0,0
8.440098,0.3911491,0.01590037,0.03389731,-0.2268512,0,0,0,0,0,0,0,0,0,0,0,0,0,0,-0.0129169,-0.00622779,0.005997131,-0.06896973,-0.9997559,-0.1582031,0,0,0,0,0,0
8.450098,0.3911491,0.01590037,0.03329754,-0.2177147,0,0,0,0,0,0,0,0,0,0,0,0,0,0,0,0,0,-0.09960938,-0.996582,-0.1922607,0,0,0,0,0,0
8.460098,0.3911491,0.01590037,0.02641265,-0.1896908,0,0,0,0,0,0,0,0,0,0,0,0,0,0,0,0,0,-0.08166504,-0.9866943,-0.2032471,0,0,0,0,0,0
8.470098,0.3911491,0.01590037,0.02049686,-0.1708072,0,0,0,0,0,0,0,0,0,1,0,0,0,0,0,0,0,-0.07946777,-1.041626,-0.1489258,0,0,0,0,0,0
8.480099,0.4003717,0.01601487,0.01933056,-0.1524967,0,0,0,0,0,0,0,0,0,1,0,0,0,0,0,0,0,-0.09521484,-0.9822998,-0.1719971,0,0,0,0,0,0
8.490099,0.3911491,0.01590037,0.01395786,-0.1335966,0,0,0,0,0,0,0,0,0,1,0,0,0,0,-0.01124577,-0.01549417,0.0002499059,-0.07348633,-0.9910889,-0.2359619,0,0,0,0,0,0
8.500099,0.4003717,0.01601487,0.0134,-0.1244286,0,0,0,0,0,0,0,0,0,1,0,0,0,0,0,0,0,-0.07556152,-0.9768066,-0.2044678,0,0,0,0,0,0
8.510099,0.3911491,0.01590037,0.01280735,-0.1152662,0,0,0,0,0,0,0,0,0,1,0,0,0,0,0,0,0,-0.0793457,-0.9752197,-0.1942139,0,0,0,0,0,0
8.5201,0.4003717,0.01601487,0.01217658,-0.1061102,0,0,0,0,0,0,0,0,0,1,0,0,0,0,0,0,0,-0.07653809,-0.9827881,-0.2119141,0,0,0,0,0,0
8.5301,0.4002815,0.009606755,0.008166331,-0.09636271,0,0,0,0,0,0,0,0,0,1,0,0,0,0,0,0,0,-0.07678223,-0.9661865,-0.1988525,0,0,0,0,0,0
8.5401,0.3910093,-0.003178937,0.008166331,-0.09636271,0,0,0,0,0,0,0,0,0,1,0,0,0,0,0,0,0,-0.08544922,-0.9881592,-0.2049561,0,0,0,0,0,0
8.5501,0.4002815,-0.009606755,0.01078504,-0.08782104,0,0,0,0,0,0,0,0,0,1,0,0,0,0,0,0,0,-0.07983398,-1.006836,-0.180542,0,0,0,0,0,0
8.560101,0.3910559,-0.009537949,0.00764739,-0.08718024,0,0,0,0,0,0,0,0,0,0,0,0,0,0,0.002748741,0.01874142,-0.006996796,-0.07751465,-1.035522,-0.09960938,0,0,0,0,0,0
8.570101,0.4002815,-0.009606755,0.01078504,-0.08782104,0,0,0,0,0,0,0,0,0,0,0,0,0,0,0,0,0,-0.1124268,-1.010864,-0.2947998,0,0,0,0,0,0
8.580101,0.4003717,-0.01601487,0.01078504,-0.08782104,0,0,0,0,0,0,0,0,0,0,0,0,0,0,0,0,0,-0.07666016,-0.9880371,-0.2209473,0,0,0,0,0,0
8.590101,0.3911491,-0.01590037,0.01078504,-0.08782104,0,0,0,0,0,0,0,0,0,0,0,0,0,0,0,0,0,-0.09460449,-0.9945068,-0.1724854,0,0,0,0,0,0
8.600101,0.3911491,-0.01590037,0.00764739,-0.08718024,0,0,0,0,0,0,0,0,0,0,0,0,0,0,0,0,0,-0.07897949,-0.9931641,-0.2055664,0,0,0,0,0,0
8.610102,0.3912885,-0.02226845,0.01078504,-0.08782104,0,0,0,0,0,0,0,0,0,0,0,0,0,0,0,0,0,-0.07531738,-1.006714,-0.2089844,0,0,0,0,0,0
8.620102,0.3912885,-0.02226845,0.01078504,-0.08782104,0,0,0,0,0,0,0,0,0,0,0,0,0,0,0,0,0,-0.06750488,-0.9847412,-0.1798096,0,0,0,0,0,0
8.630102,0.3820708,-0.02210327,0.00764739,-0.08718024,0,0,0,0,0,0,0,0,0,0,0,0,0,0,0,0,0,-0.06213379,-1.005371,-0.15271,0,0,0,0,0,0
8.640102,0.3822624,-0.02843274,0.00764739,-0.08718024,0,0,0,0,0,0,0,0,0,0,0,0,0,0,-0.01949266,-0.006247648,0.01399473,-0.09094238,-1.001709,-0.1962891,0,0,0,0,0,0
8.650103,0.3822624,-0.02843274,0.004229449,-0.0775399,0,0,0,0,0,0,0,0,0,0,0,0,0,0,0,0,0,-0.07971191,-0.9976807,-0.1741943,0,0,0,0,0,0
8.660103,0.3822624,-0.02843274,0.001284569,-0.06808215,0,0,0,0,0,0,0,0,0,0,0,0,0,0,0,0,0,-0.05651855,-0.918335,-0.3603516,0,0,0,0,0,0
8.670103,0.3822624,-0.02843274,0,-0.05882353,0,0,0,0,0,0,0,0,0,1,0,0,0,0,-0.01774187,-0.01124485,0.006247139,-0.1374512,-0.947998,-0.1834717,0,0,0,0,0,0
8.680103,0.3822624,-0.02843274,-0.003056701,-0.04992612,0,0,0,0,0,0,0,0,0,1,0,0,0,0,0,0,0,-0.06774902,-0.9669189,-0.2001953,0,0,0,0,0,0
8.690104,0.3822624,-0.02843274,-0.00733856,-0.05136992,0,0,0,0,0,0,0,0,0,1,0,0,0,0,0,0,0,-0.07507324,-0.9633789,-0.2098389,0,0,0,0,0,0
8.700104,0.3822624,-0.02843274,-0.008333266,-0.04351817,0,0,0,0,0,0,0,0,0,1,0,0,0,0,0,0,0,-0.08215332,-0.9892578,-0.2197266,0,0,0,0,0,0
8.710104,0.3822624,-0.02843274,-0.01053481,-0.04501235,0,0,0,0,0,0,0,0,0,1,0,0,0,0,0,0,0,-0.08337402,-0.9875488,-0.1843262,0,0,0,0,0,0
8.720104,0.3822624,-0.02843274,-0.01293234,-0.04675537,0,0,0,0,0,0,0,0,0,1,0,0,0,0,0.007381736,-0.0004613585,0,-0.07568359,-0.9869385,-0.1960449,0,0,0,0,0,0
8.730104,0.3822624,-0.02843274,-0.01293234,-0.04675537,0,0,0,0,0,0,0,0,0,1,0,0,0,0,0,0,0,-0.07836914,-1.004639,-0.2080078,0,0,0,0,0,0
8.740105,0.3822624,-0.02843274,-0.01339925,-0.04019775,0,0,0,0,0,0,0,0,0,1,0,0,0,0,0,0,0,-0.07788086,-1.006592,-0.1936035,0,0,0,0,0,0
