Timestamp, Left Stick X, Left Stick Y, Right Stick X, Right Stick Y, D-Pad Up, D-Pad Right,D-Pad Down, D-Pad Left, Button North, Button East, Button South, Button West, L1, R1, L2, R2, L3, R3,Gyroscope X, Gyroscope Y, Gyroscope Z, Accelerometer X, Accelerometer Y, Accelerometer Z,Touch 1, Touch 2, Touch 1 Pos X, Touch 1 Pos Y, Touch 2 Pos X, Touch 2 Pos Y
0,0,0,0,0,0,0,0,0,0,0,0,0,0,0,0,0,0,0,0,0,0,-0.01208496,-1.010132,-0.0880127,0,0,0,0,0,0
0.01,0,0,0,0,0,0,0,0,0,0,0,0,0,0,0,0,0,0,0,0,0,-0.01513672,-1.010498,-0.08850098,0,0,0,0,0,0
0.02,0,0,0,0,0,0,0,0,0,0,0,0,0,0,0,0,0,0,0,0,0,-0.01269531,-1.006226,-0.08813477,0,0,0,0,0,0
0.03,0,0,0,0,0,0,0,0,0,0,0,0,0,0,0,0,0,0,0,0,0,-0.01623535,-1.011597,-0.08862305,0,0,0,0,0,0
0.04,0,0,0,0,0,0,0,0,0,0,0,0,0,0,0,0,0,0,0.0009995422,-0.002748741,0.003248512,-0.01635742,-1.007935,-0.08691406,0,0,0,0,0,0
0.05,0,0,0,0,0,0,0,0,0,0,0,0,0,0,0,0,0,0,0,0,0,-0.01757813,-1.008301,-0.08776855,0,0,0,0,0,0
0.05999999,0,0,0,0,0,0,0,0,0,0,0,0,0,0,0,0,0,0,0,0,0,-0.01806641,-1.007813,-0.08557129,0,0,0,0,0,0
0.06999999,0,0,0,0,0,0,0,0,0,0,0,0,0,0,0,0,0,0,0.0006922819,-0.002538367,-0.0002307606,-0.01867676,-1.012085,-0.09094238,0,0,0,0,0,0
0.07999999,0,0,0,0,0,0,0,0,0,0,0,0,0,0,0,0,0,0,0,0,0,-0.01831055,-1.009521,-0.08996582,0,0,0,0,0,0
0.08999999,0,0,0,0,0,0,0,0,0,0,0,0,0,0,0,0,0,0,0,0,0,-0.01867676,-1.013306,-0.09082031,0,0,0,0,0,0
0.09999999,0,0,0,0,0,0,0,0,0,0,0,0,0,0,0,0,0,0,-0.001749341,-0.0009996236,0.0007497177,-0.01501465,-1.013794,-0.09289551,0,0,0,0,0,0
0.11,0,0,0,0,0,0,0,0,0,0,0,0,0,0,0,0,0,0,0,0,0,-0.01611328,-1.009277,-0.09143066,0,0,0,0,0,0
0.12,0,0,0,0,0,0,0,0,0,0,0,0,0,0,0,0,0,0,0,0,0,-0.01306152,-1.007935,-0.09619141,0,0,0,0,0,0
0.13,0,0,0,0,0,0,0,0,0,0,0,0,0,0,0,0,0,0,0.0009995422,-0.001749199,0,-0.01464844,-1.00769,-0.09326172,0,0,0,0,0,0
0.14,0,0,0,0,0,0,0,0,0,0,0,0,0,0,0,0,0,0,0,0,0,-0.01208496,-1.01001,-0.09155273,0,0,0,0,0,0
0.15,0,0,0,0,0,0,0,0,0,0,0,0,0,0,0,0,0,0,0,0,0,-0.01367188,-1.013672,-0.08972168,0,0,0,0,0,0
0.16,0,0,0,0,0,0,0,0,0,0,0,0,0,0,0,0,0,0,-0.0002499059,-0.004248401,0.001499435,-0.01428223,-1.011353,-0.0904541,0,0,0,0,0,0
0.17,0,0,0,0,0,0,0,0,0,0,0,0,0,0,0,0,0,0,0,0,0,-0.01574707,-1.012329,-0.08825684,0,0,0,0,0,0
0.18,0,0,0,0,0,0,0,0,0,0,0,0,0,0,0,0,0,0,0,0,0,-0.01940918,-1.009033,-0.08557129,0,0,0,0,0,0
0.19,0,0,0,0,0,0,0,0,0,0,0,0,0,0,0,0,0,0,0,0,0,-0.01965332,-1.011475,-0.08435059,0,0,0,0,0,0
0.2,0,0,0,0,0,0,0,0,0,0,0,0,0,0,0,0,0,0,0,0,0,-0.01733398,-1.015503,-0.08618164,0,0,0,0,0,0
0.21,0,0,0,0,0,0,0,0,0,0,0,0,0,0,0,0,0,0,0,0,0,-0.01953125,-1.011719,-0.08740234,0,0,0,0,0,0
0.22,0,0,0,0,0,0,0,0,0,0,0,0,0,0,0,0,0,0,0.0006920377,-0.002537472,0.003460189,-0.01538086,-1.014404,-0.08813477,0,0,0,0,0,0
0.23,0,0,0,0,0,0,0,0,0,0,0,0,0,0,0,0,0,0,0,0,0,-0.01708984,-1.007202,-0.0892334,0,0,0,0,0,0
0.24,0,0,0,0,0,0,0,0,0,0,0,0,0,0,0,0,0,0,0,0,0,-0.01757813,-1.008301,-0.08911133,0,0,0,0,0,0
0.25,0,0,0,0,0,0,0,0,0,0,0,0,0,0,0,0,0,0,0.001749341,-0.001249529,0.002249153,-0.0177002,-1.005127,-0.08618164,0,0,0,0,0,0
0.26,0,0,0,0,0,0,0,0,0,0,0,0,0,0,0,0,0,0,0,0,0,-0.0144043,-1.000977,-0.08679199,0,0,0,0,0,0
0.27,0,0,0,0,0,0,0,0,0,0,0,0,0,0,0,0,0,0,0,0,0,-0.01538086,-1.002319,-0.08874512,0,0,0,0,0,0
0.28,0,0,0,0,0,0,0,0,0,0,0,0,0,0,0,0,0,0,0.0009996236,-0.002249153,0.001249529,-0.01147461,-1.004517,-0.09057617,0,0,0,0,0,0
0.29,0,0,0,0,0,0,0,0,0,0,0,0,0,0,0,0,0,0,0,0,0,-0.01086426,-1.006958,-0.08972168,0,0,0,0,0,0
0.3,0,0,0,0,0,0,0,0,0,0,0,0,0,0,0,0,0,0,0,0,0,-0.01464844,-1.012695,-0.08874512,0,0,0,0,0,0
0.31,0,0,0,0,0,0,0,0,0,0,0,0,0,0,0,0,0,0,0.005766981,-0.002306792,0.007381736,-0.01818848,-1.011597,-0.08496094,0,0,0,0,0,0
0.32,0,0,0,0,0,0,0,0,0,0,0,0,0,0,0,0,0,0,0,0,0,-0.02026367,-1.015137,-0.08154297,0,0,0,0,0,0
0.33,0,0,0,0,0,0,0,0,0,0,0,0,0,0,0,0,0,0,0,0,0,-0.01733398,-1.013916,-0.08728027,0,0,0,0,0,0
0.3399999,0,0,0,0,0,0,0,0,0,0,0,0,0,0,0,0,0,0,0,0,0,-0.02087402,-1.01062,-0.0859375,0,0,0,0,0,0
0.3499999,0,0,0,0,0,0,0,0,0,0,0,0,0,0,0,0,0,0,0,0,0,-0.02368164,-1.007202,-0.0838623,0,0,0,0,0,0
0.3599999,0,0,0,0,0,0,0,0,0,0,0,0,0,0,0,0,0,0,0,0,0,-0.02355957,-1.01123,-0.08691406,0,0,0,0,0,0
0.3699999,0,0,0,0,0,0,0,0,0,0,0,0,0,0,0,0,0,0,0,0,0,-0.02258301,-1.015869,-0.08630371,0,0,0,0,0,0
0.3799999,0,0,0,0,0,0,0,0,0,0,0,0,0,0,0,0,0,0,0,0,0,-0.02209473,-1.010254,-0.08544922,0,0,0,0,0,0
0.3899999,0,0,0,0,0,0,0,0,0,0,0,0,0,0,0,0,0,0,0.001999084,-0.002498855,0.002498855,-0.02185059,-1.011597,-0.08728027,0,0,0,0,0,0
0.3999999,0,0,0,0,0,0,0,0,0,0,0,0,0,0,0,0,0,0,0,0,0,-0.02404785,-1.009644,-0.08972168,0,0,0,0,0,0
0.4099999,0,0,0,0,0,0,0,0,0,0,0,0,0,0,0,0,0,0,0,0,0,-0.02526855,-1.008789,-0.0892334,0,0,0,0,0,0
0.4199999,0,0,0,0,0,0,0,0,0,0,0,0,0,0,0,0,0,0,-0.001499313,-0.001249428,-0.0009995422,-0.02587891,-1.005371,-0.09179688,0,0,0,0,0,0
0.4299999,0,0,0,0,0,0,0,0,0,0,0,0,0,0,0,0,0,0,0,0,0,-0.0213623,-1.005615,-0.09130859,0,0,0,0,0,0
0.4399998,0,0,0,0,0,0,0,0,0,0,0,0,0,0,0,0,0,0,0,0,0,-0.01879883,-1.010376,-0.09399414,0,0,0,0,0,0
0.4499998,0,0,0,0,0,0,0,0,0,0,0,0,0,0,0,0,0,0,0,-0.0006919767,-0.0009226355,-0.02026367,-1.011597,-0.09277344,0,0,0,0,0,0
0.4599998,0,0,0,0,0,0,0,0,0,0,0,0,0,0,0,0,0,0,0,0,0,-0.01708984,-1.017578,-0.08996582,0,0,0,0,0,0
0.4699998,0,0,0,0,0,0,0,0,0,0,0,0,0,0,0,0,0,0,0,0,0,-0.01721191,-1.014893,-0.09118652,0,0,0,0,0,0
0.4799998,0,0,0,0,0,0,0,0,0,0,0,0,0,0,0,0,0,0,-0.001845434,-0.000922717,0.001614755,-0.01953125,-1.010864,-0.09130859,0,0,0,0,0,0
0.4899998,0,0,0,0,0,0,0,0,0,0,0,0,0,0,0,0,0,0,0,0,0,-0.01989746,-1.010742,-0.09448242,0,0,0,0,0,0
0.4999998,0,0,0,0,0,0,0,0,0,0,0,0,0,0,0,0,0,0,0,0,0,-0.01879883,-1.009033,-0.08898926,0,0,0,0,0,0
0.5099998,0,0,0,0,0,0,0,0,0,0,0,0,0,0,0,0,0,0,0,0,0,-0.0201416,-1.009888,-0.08789063,0,0,0,0,0,0
0.5199998,0,0,0,0,0,0,0,0,0,0,0,0,0,0,0,0,0,0,0,0,0,-0.01965332,-1.012207,-0.08654785,0,0,0,0,0,0
0.5299998,0,0,0,0,0,0,0,0,0,0,0,0,0,0,0,0,0,0,0,0,0,-0.02502441,-1.010742,-0.08618164,0,0,0,0,0,0
0.5399998,0,0,0,0,0,0,0,0,0,0,0,0,0,0,0,0,0,0,-0.003248512,-0.0002498855,0.001499313,-0.02392578,-1.012085,-0.08447266,0,0,0,0,0,0
0.5499998,0,0,0,0,0,0,0,0,0,0,0,0,0,0,0,0,0,0,0,0,0,-0.02111816,-1.009155,-0.0859375,0,0,0,0,0,0
0.5599998,0,0,0,0,0,0,0,0,0,0,0,0,0,0,0,0,0,0,0,0,0,-0.02050781,-1.008301,-0.08325195,0,0,0,0,0,0
0.5699998,0,0,0,0,0,0,0,0,0,0,0,0,0,0,0,0,0,0,-0.002748741,-0.0007496566,-0.0007496566,-0.02270508,-1.007813,-0.08605957,0,0,0,0,0,0
0.5799997,0,0,0,0,0,0,0,0,0,0,0,0,0,0,0,0,0,0,0,0,0,-0.02160645,-1.008545,-0.08874512,0,0,0,0,0,0
0.5899997,0,0,0,0,0,0,0,0,0,0,0,0,0,0,0,0,0,0,0,0,0,-0.02001953,-1.008667,-0.08776855,0,0,0,0,0,0
0.5999997,0,0,0,0,0,0,0,0,0,0,0,0,0,0,0,0,0,0,-0.0004613178,-0.0006919767,0.0004613178,-0.01965332,-1.010132,-0.08862305,0,0,0,0,0,0
0.6099997,0,0,0,0,0,0,0,0,0,0,0,0,0,0,0,0,0,0,0,0,0,-0.01782227,-1.012451,-0.09033203,0,0,0,0,0,0
0.6199997,0,0,0,0,0,0,0,0,0,0,0,0,0,0,0,0,0,0,0,0,0,-0.01806641,-1.017944,-0.09265137,0,0,0,0,0,0
0.6299997,0,0,0,0,0,0,0,0,0,0,0,0,0,0,0,0,0,0,-0.001383953,-0.002998566,0.004382519,-0.02209473,-1.023315,-0.08447266,0,0,0,0,0,0
0.6399997,0,0,0,0,0,0,0,0,0,0,0,0,0,0,0,0,0,0,0,0,0,-0.01806641,-1.021973,-0.08544922,0,0,0,0,0,0
0.6499997,0,0,0,0,0,0,0,0,0,0,0,0,0,0,0,0,0,0,0,0,0,-0.01855469,-1.02002,-0.08740234,0,0,0,0,0,0
0.6599997,0,0,0,0,0,0,0,0,0,0,0,0,0,0,0,0,0,0,0,0,0,-0.02404785,-1.02002,-0.08630371,0,0,0,0,0,0
0.6699997,0,0,0,0,0,0,0,0,0,0,0,0,0,0,0,0,0,0,0,0,0,-0.02575684,-1.019043,-0.08679199,0,0,0,0,0,0
0.6799996,0,0,0,0,0,0,0,0,0,0,0,0,0,0,0,0,0,0,-0.006247139,-0.0004997711,0.003498398,-0.02600098,-1.019775,-0.08410645,0,0,0,0,0,0
0.6899996,0,0,0,0,0,0,0,0,0,0,0,0,0,0,0,0,0,0,0,0,0,-0.02856445,-1.016357,-0.08374023,0,0,0,0,0,0
0.6999996,0,0,0,0,0,0,0,0,0,0,0,0,0,0,0,0,0,0,0,0,0,-0.02880859,-1.016113,-0.07617188,0,0,0,0,0,0
0.7099996,0,0,0,0,0,0,0,0,0,0,0,0,0,0,0,0,0,0,0,0,0,-0.02307129,-1.0271,-0.09020996,0,0,0,0,0,0
0.7199996,0,0,0,0,0,0,0,0,0,0,0,0,0,0,0,0,0,0,-0.006996796,0.003248512,0.006996796,-0.02197266,-1.019531,-0.08837891,0,0,0,0,0,0
0.7299996,0,0,0,0,0,0,0,0,0,0,0,0,0,0,0,0,0,0,0,0,0,-0.02185059,-1.021973,-0.08178711,0,0,0,0,0,0
0.7399996,0,0,0,0,0,0,0,0,0,0,0,0,0,0,0,0,0,0,-0.01924119,0.0007496566,0.003498398,-0.01818848,-1.036621,-0.07800293,0,0,0,0,0,0
0.7499996,0,0,0,0,0,0,0,0,0,0,0,0,0,0,0,0,0,0,0,0,0,-0.02087402,-1.03894,-0.07946777,0,0,0,0,0,0
0.7599996,0,0,0,0,0,0,0,0,0,0,0,0,0,0,0,0,0,0,0,0,0,-0.03967285,-1.035156,-0.0657959,0,0,0,0,0,0
0.7699996,0,0,0,0,0,0,0,0,0,0,0,0,0,0,0,0,0,0,0,0,0,-0.02905273,-1.042114,-0.06689453,0,0,0,0,0,0
0.7799996,0,0,0,0,0,0,0,0,0,0,0,0,0,0,0,0,0,0,0,0,0,-0.0423584,-1.028442,-0.07348633,0,0,0,0,0,0
0.7899995,0,0,0,0,0,0,0,0,0,0,0,0,0,0,0,0,0,0,0,0,0,-0.04968262,-1.050659,-0.03271484,0,0,0,0,0,0
0.7999995,0,0,0,0,0,0,0,0,0,0,0,0,0,0,0,1,0,0,0,0,0,-0.07006836,-1.051392,-0.01037598,0,0,0,0,0,0
0.8099995,0,0,0,0,0,0,0,0,0,0,0,0,0,0,0,1,0,0,0,0,0,-0.06152344,-1.004517,-0.0435791,0,0,0,0,0,0
0.8199995,0,0,0,0,0,0,0,0,0,0,0,0,0,0,0,1,0,0,0,0,0,-0.05700684,-0.9128418,-0.01086426,0,0,0,0,0,0
0.8299995,0,0,0,0,0,0,0,0,0,0,0,0,0,0,0,1,0,0,0,0,0,-0.01623535,-0.9677734,-0.1572266,0,0,0,0,0,0
0.8399995,0,0,-0.03543526,0.029689,0,0,0,0,0,0,0,0,0,0,0,1,0,0,-0.06646956,0.0154929,-0.03923203,0.03564453,-0.9973145,-0.2657471,0,0,0,0,0,0
0.8499995,0,0,-0.04859392,0.04360994,0,0,0,0,0,0,0,0,0,0,0,1,0,0,0,0,0,0.01965332,-1.000366,-0.2298584,0,0,0,0,0,0
0.8599995,0,0,-0.04859392,0.04360994,0,0,0,0,0,0,0,0,0,0,0,1,0,0,0,0,0,0.02124023,-0.9786377,-0.15271,0,0,0,0,0,0
0.8699995,0,0,-0.04859392,0.04360994,0,0,0,0,0,0,0,0,0,0,0,1,0,0,0,0,0,0.01184082,-0.9656982,-0.1700439,0,0,0,0,0,0
0.8799995,0,0,-0.04859392,0.04360994,0,0,0,0,0,0,0,0,0,0,0,1,0,0,0,0,0,0.008422852,-0.9598389,-0.1843262,0,0,0,0,0,0
0.8899994,0,0,-0.04859392,0.04360994,0,0,0,0,0,0,0,0,0,0,0,1,0,0,0,0,0,0.007324219,-0.935791,-0.190918,0,0,0,0,0,0
0.8999994,0,0,-0.04859392,0.04360994,0,0,0,0,0,0,0,0,0,0,0,1,0,0,0,0,0,0.00390625,-0.9659424,-0.1568604,0,0,0,0,0,0
0.9099994,-0.000460843,0.001550108,-0.01158581,0.008777132,0,0,0,0,0,0,0,0,0,0,0,1,0,0,0.04382905,0.01199532,0.02675879,0.005004883,-1.013062,-0.1051025,0,0,0,0,0,0
0.9199994,-0.000460843,0.001550108,0,0,0,0,0,0,0,0,0,0,0,0,0,1,0,0,0,0,0,0.02075195,-1.0354,-0.1385498,0,0,0,0,0,0
0.9299994,-0.000460843,0.001550108,0,0,0,0,0,0,0,0,0,0,0,0,0,1,0,0,0,0,0,-0.006591797,-1.059937,-0.1495361,0,0,0,0,0,0
0.9399994,-0.000460843,0.001550108,0,0,0,0,0,0,0,0,0,0,0,0,0,0,0,0,0.02174004,0.008246223,0.04972723,-0.03405762,-1.032349,-0.1318359,0,0,0,0,0,0
0.9499994,-0.000460843,0.001550108,0,0,0,0,0,0,0,0,0,0,0,0,0,0,0,0,0,0,0,-0.0447998,-1.020264,-0.1080322,0,0,0,0,0,0
0.9599994,-0.000460843,0.001550108,0,0,0,0,0,0,0,0,0,0,0,0,0,0,0,0,0,0,0,-0.03051758,-1.010254,-0.1218262,0,0,0,0,0,0
0.9699994,-0.000460843,0.001550108,0,0,0,0,0,0,0,0,0,0,0,0,0,0,0,0,0,0,0,-0.04699707,-0.9442139,-0.1463623,0,0,0,0,0,0
0.9799994,-0.000460843,0.001550108,0,0,0,0,0,0,0,0,0,0,0,0,0,0,0,0,0,0,0,-0.04919434,-0.9486084,-0.07946777,0,0,0,0,0,0
0.9899994,-0.000460843,0.001550108,0,0,0,0,0,0,0,0,0,0,0,0,0,0,0,0,0,0,0,-0.04223633,-0.9863281,-0.1121826,0,0,0,0,0,0
0.9999993,0,0,0,0,0,0,0,0,0,0,0,0,0,0,0,0,0,0,0.00824488,-0.01074333,-0.02148666,-0.04553223,-0.9865723,-0.0925293,0,0,0,0,0,0
1.009999,0,0,0,0,0,0,0,0,0,0,0,0,0,0,0,0,0,0,0,0,0,-0.03540039,-1.011475,-0.0859375,0,0,0,0,0,0
1.019999,0,0,0,0,0,0,0,0,0,0,0,0,0,0,0,0,0,0,0,0,0,-0.04333496,-1.044922,-0.06762695,0,0,0,0,0,0
1.029999,0,0,0,0,0,0,0,0,0,0,0,0,0,0,0,0,0,0,-0.01383953,-0.007150426,-0.0006919767,-0.03613281,-1.047485,-0.0826416,0,0,0,0,0,0
1.039999,0,0,0,0,0,0,0,0,0,0,0,0,0,0,0,0,0,0,0,0,0,-0.03979492,-1.046265,-0.07019043,0,0,0,0,0,0
1.049999,0,0,0,0,0,0,0,0,0,0,0,0,0,0,0,1,0,0,0,0,0,-0.03710938,-1.041626,-0.05517578,0,0,0,0,0,0
1.059999,0,0,0,0,0,0,0,0,0,0,0,0,0,0,0,1,0,0,0,0,0,-0.02111816,-1.034668,-0.07043457,0,0,0,0,0,0
1.069999,0,0,0,0,0,0,0,0,0,0,0,0,0,0,0,1,0,0,0,0,0,-0.01330566,-0.9914551,-0.1188965,0,0,0,0,0,0
1.079999,0,0,0,0,0,0,0,0,0,0,0,0,0,0,0,1,0,0,0,0,0,-0.0378418,-0.9361572,-0.1795654,0,0,0,0,0,0
1.089999,0,0,0,0,0,0,0,0,0,0,0,0,0,0,0,1,0,0,-0.02523844,0.005497482,-0.02798718,0.006713867,-1.002686,-0.2001953,0,0,0,0,0,0
1.099999,0,0,0,0,0,0,0,0,0,0,0,0,0,0,0,1,0,0,0,0,0,-0.006469727,-1.003784,-0.1778564,0,0,0,0,0,0
1.109999,0,0,0,0,0,0,0,0,0,0,0,0,0,0,0,1,0,0,0,0,0,0.001220703,-0.9984131,-0.1745605,0,0,0,0,0,0
1.119999,0,0,0,0,0,0,0,0,0,0,0,0,0,0,0,1,0,0,0,0,0,-0.01293945,-1.00061,-0.1463623,0,0,0,0,0,0
1.129999,0,0,0,0,0,0,0,0,0,0,0,0,0,0,0,1,0,0,0.009495651,0.002498855,0.02373913,-0.0009765625,-1.004517,-0.1501465,0,0,0,0,0,0
1.139999,0,0,0,0,0,0,0,0,0,0,0,0,0,0,0,1,0,0,0,0,0,-0.008666992,-0.9990234,-0.135498,0,0,0,0,0,0
1.149999,0,0,0,0,0,0,0,0,0,0,0,0,0,0,0,1,0,0,0,0,0,-0.004516602,-0.9904785,-0.1464844,0,0,0,0,0,0
1.159999,0,0,0,0,0,0,0,0,0,0,0,0,0,0,0,1,0,0,0.03148558,0.0002498855,0.02198993,-0.007202148,-1.005127,-0.1676025,0,0,0,0,0,0
1.169999,0,0,0,0,0,0,0,0,0,0,0,0,0,0,0,1,0,0,0,0,0,-0.01403809,-1.021118,-0.1499023,0,0,0,0,0,0
1.179999,0,0,0,0,0,0,0,0,0,0,0,0,0,0,0,1,0,0,0,0,0,-0.02148438,-1.022217,-0.1263428,0,0,0,0,0,0
1.189999,0,0,0,0,0,0,0,0,0,0,0,0,0,0,0,0,0,0,0,0,0,-0.0279541,-1.006836,-0.1256104,0,0,0,0,0,0
1.199999,0,0,0,0,0,0,0,0,0,0,0,0,0,0,0,0,0,0,0,0,0,-0.03674316,-0.9959717,-0.1114502,0,0,0,0,0,0
1.209999,0,0,0,0,0,0,0,0,0,0,0,0,0,0,0,0,0,0,0,0,0,-0.03894043,-0.9890137,-0.08947754,0,0,0,0,0,0
1.219999,0,0,0,0,0,0,0,0,0,0,0,0,0,0,0,0,0,0,0.005997131,-0.009918332,0.0002306589,-0.04138184,-0.9764404,-0.1015625,0,0,0,0,0,0
1.229999,0,0,0,0,0,0,0,0,0,0,0,0,0,0,0,0,0,0,0.005248024,-0.01174558,-0.005997742,-0.03063965,-0.9781494,-0.1027832,0,0,0,0,0,0
1.239999,0,0,0,0,0,0,0,0,0,0,0,0,0,0,0,0,0,0,0,0,0,-0.03649902,-0.9869385,-0.08410645,0,0,0,0,0,0
1.249999,0,0,0,0,0,0,0,0,0,0,0,0,0,0,0,0,0,0,0,0,0,-0.02758789,-0.9989014,-0.09741211,0,0,0,0,0,0
1.259999,0,0,0,0,0,0,0,0,0,0,0,0,0,0,0,0,0,0,-0.003248512,-0.008995879,-0.0154929,-0.03344727,-1.004517,-0.09619141,0,0,0,0,0,0
1.269999,0,0,0,0,0,0,0,0,0,0,0,0,0,0,0,0,0,0,0,0,0,-0.03381348,-1.007446,-0.08618164,0,0,0,0,0,0
1.279999,0,0,0,0,0,0,0,0,0,0,0,0,0,0,0,0,0,0,0,0,0,-0.03222656,-1.017334,-0.09082031,0,0,0,0,0,0
1.289999,0,0,0,0,0,0,0,0,0,0,0,0,0,0,0,0,0,0,-0.012226,-0.006228339,-0.01130328,-0.03344727,-1.027222,-0.09423828,0,0,0,0,0,0
1.299999,0,0,0,0,0,0,0,0,0,0,0,0,0,0,0,0,0,0,0,0,0,-0.03564453,-1.03772,-0.0892334,0,0,0,0,0,0
1.309999,0,0,0,0,0,0,0,0,0,0,0,0,0,0,0,1,0,0,0,0,0,-0.04394531,-1.054199,-0.06665039,0,0,0,0,0,0
1.319999,0,0,0,0,0,0,0,0,0,0,0,0,0,0,0,1,0,0,-0.03673617,0.0124953,-0.007996988,-0.0378418,-1.012573,-0.09143066,0,0,0,0,0,0
1.329999,0,0,0,0,0,0,0,0,0,0,0,0,0,0,0,1,0,0,0,0,0,-0.02478027,-0.9898682,-0.1228027,0,0,0,0,0,0
1.339999,0,0,0,0,0,0,0,0,0,0,0,0,0,0,0,1,0,0,0,0,0,-0.03369141,-0.9680176,-0.1689453,0,0,0,0,0,0
1.349999,-0.007916301,0.01816093,0,0,0,0,0,0,0,0,0,0,0,0,0,1,0,0,0,0,0,0.001342773,-1.018921,-0.2016602,0,0,0,0,0,0
1.359999,-0.01633556,0.03696996,0,0,0,0,0,0,0,0,0,0,0,0,0,1,0,0,0,0,0,-0.01452637,-1.01001,-0.1660156,0,0,0,0,0,0
1.369999,-0.02854488,0.05833083,0,0,0,0,0,0,0,0,0,0,0,0,0,1,0,0,0,0,0,-0.001831055,-1.005493,-0.1638184,0,0,0,0,0,0
1.379999,-0.03766545,0.07683752,0,0,0,0,0,0,0,0,0,0,0,0,0,1,0,0,0,0,0,-0.006958008,-1.008179,-0.1635742,0,0,0,0,0,0
1.389999,-0.04446292,0.08727907,0,0,0,0,0,0,0,0,0,0,0,0,0,1,0,0,0.005747368,-0.001999084,0.01649245,-0.01623535,-0.9949951,-0.1594238,0,0,0,0,0,0
1.399999,-0.05148719,0.09764812,0,0,0,0,0,0,0,0,0,0,0,0,0,1,0,0,0,0,0,-0.005004883,-0.9885254,-0.182251,0,0,0,0,0,0
1.409999,-0.05148719,0.09764812,0,0,0,0,0,0,0,0,0,0,0,0,0,1,0,0,0,0,0,-0.02893066,-1.006592,-0.12146,0,0,0,0,0,0
1.419999,-0.05637255,0.1000158,0,0,0,0,0,0,0,0,0,0,0,0,0,1,0,0,0.03848238,0.005247597,0.0189913,-0.02844238,-1.022095,-0.1044922,0,0,0,0,0,0
1.429999,-0.05637255,0.1000158,0,0,0,0,0,0,0,0,0,0,0,0,0,1,0,0,0,0,0,-0.002319336,-1.065063,-0.1312256,0,0,0,0,0,0
1.439999,-0.05637255,0.1000158,0,0,0,0,0,0,0,0,0,0,0,0,0,1,0,0,0,0,0,-0.01330566,-1.056274,-0.12146,0,0,0,0,0,0
1.449999,-0.05637255,0.1000158,0,0,0,0,0,0,0,0,0,0,0,0,0,0,0,0,0.01729942,0.003229225,0.03736674,-0.02514648,-1.024536,-0.1175537,0,0,0,0,0,0
1.459999,-0.05870921,0.1079492,0,0,0,0,0,0,0,0,0,0,0,0,0,0,0,0,0,0,0,-0.03527832,-0.9915771,-0.118042,0,0,0,0,0,0
1.469999,-0.05870921,0.1079492,0,0,0,0,0,0,0,0,0,0,0,0,0,0,0,0,0,0,0,-0.03759766,-0.9887695,-0.1020508,0,0,0,0,0,0
1.479999,-0.05870921,0.1079492,0,0,0,0,0,0,0,0,0,0,0,0,0,0,0,0,0.00622779,-0.002767907,0.006689108,-0.04150391,-0.9666748,-0.08496094,0,0,0,0,0,0
1.489999,-0.05870921,0.1079492,0,0,0,0,0,0,0,0,0,0,0,0,0,0,0,0,0,0,0,-0.03295898,-0.9761963,-0.08996582,0,0,0,0,0,0
1.499999,-0.05870921,0.1079492,0,0,0,0,0,0,0,0,0,0,0,0,0,0,0,0,0,0,0,-0.03845215,-0.979248,-0.07348633,0,0,0,0,0,0
1.509999,-0.05870921,0.1079492,0,0,0,0,0,0,0,0,0,0,0,0,0,0,0,0,0,0,0,-0.04577637,-0.9920654,-0.0949707,0,0,0,0,0,0
1.519999,-0.05870921,0.1079492,0,0,0,0,0,0,0,0,0,0,0,0,0,0,0,0,0,0,0,-0.04211426,-0.9993896,-0.08996582,0,0,0,0,0,0
1.529999,-0.05870921,0.1079492,0,0,0,0,0,0,0,0,0,0,0,0,0,0,0,0,0,0,0,-0.03271484,-1.008423,-0.08288574,0,0,0,0,0,0
1.539999,-0.05870921,0.1079492,-0.008664987,-0.009948689,0,0,0,0,0,0,0,0,0,0,0,0,0,0,0,0,0,-0.0333252,-1.010254,-0.09741211,0,0,0,0,0,0
1.549999,-0.05870921,0.1079492,-0.01823836,-0.01823836,0,0,0,0,0,0,0,0,0,0,0,0,0,0,-0.01174462,0.01924119,-0.03448421,-0.03430176,-1.040161,-0.111084,0,0,0,0,0,0
1.559999,-0.05870921,0.1079492,-0.02746559,-0.02746559,0,0,0,0,0,0,0,0,0,0,0,0,0,0,0,0,0,-0.03430176,-1.06604,-0.104248,0,0,0,0,0,0
1.569999,-0.05870921,0.1079492,-0.03900439,-0.0347877,0,0,0,0,0,0,0,0,0,0,0,0,0,0,0,0,0,-0.04382324,-1.113403,-0.09655762,0,0,0,0,0,0
1.579999,-0.05870921,0.1079492,-0.05168537,-0.04160042,0,0,0,0,0,0,0,0,0,0,0,1,0,0,0,0,0,-0.04541016,-1.119751,-0.09973145,0,0,0,0,0,0
1.589999,-0.05870921,0.1079492,-0.07530265,-0.05607645,0,0,0,0,0,0,0,0,0,0,0,1,0,0,0,0,0,-0.03564453,-1.101196,-0.135498,0,0,0,0,0,0
1.599999,-0.05870921,0.1079492,-0.09726287,-0.0642302,0,0,0,0,0,0,0,0,0,0,0,1,0,0,0,0,0,-0.02087402,-1.064941,-0.1843262,0,0,0,0,0,0
1.609999,-0.05870921,0.1079492,-0.1125926,-0.06913583,0,0,0,0,0,0,0,0,0,0,0,1,0,0,0,0,0,-0.01147461,-1.077515,-0.1767578,0,0,0,0,0,0
1.619999,-0.05870921,0.1079492,-0.1204287,-0.07144073,0,0,0,0,0,0,0,0,0,0,0,1,0,0,0,0,0,-0.0135498,-1.055664,-0.1705322,0,0,0,0,0,0
1.629999,-0.05637255,0.1000158,-0.1204287,-0.07144073,0,0,0,0,0,0,0,0,0,0,0,1,0,0,0,0,0,-0.0402832,-1.051392,-0.1608887,0,0,0,0,0,0
1.639999,-0.05136039,0.08449613,-0.1204287,-0.07144073,0,0,0,0,0,0,0,0,0,0,0,1,0,0,-0.004152226,0.04613585,0.0232986,-0.02331543,-1.050781,-0.1707764,0,0,0,0,0,0
1.649999,-0.05136039,0.08449613,-0.1204287,-0.07144073,0,0,0,0,0,0,0,0,0,0,0,1,0,0,0,0,0,-0.01940918,-1.060791,-0.1833496,0,0,0,0,0,0
1.659999,-0.05136039,0.08449613,-0.1204287,-0.07144073,0,0,0,0,0,0,0,0,0,0,0,1,0,0,0,0,0,-0.02246094,-1.058716,-0.1772461,0,0,0,0,0,0
1.669999,-0.04867337,0.07693534,-0.1048671,-0.06673362,0,0,0,0,0,0,0,0,0,0,0,0,0,0,0,0,0,-0.02929688,-1.057129,-0.1777344,0,0,0,0,0,0
1.679999,-0.04867337,0.07693534,-0.08246687,-0.05890491,0,0,0,0,0,0,0,0,0,0,0,0,0,0,0,0,0,-0.03625488,-1.03418,-0.1853027,0,0,0,0,0,0
1.689999,-0.04585813,0.06952684,-0.04859392,-0.04360994,0,0,0,0,0,0,0,0,0,0,0,0,0,0,0,0,0,-0.0447998,-0.9901123,-0.1785889,0,0,0,0,0,0
1.699999,-0.04290922,0.06228759,0,0,0,0,0,0,0,0,0,0,0,0,0,0,0,0,0,0,0,-0.05029297,-0.9698486,-0.1710205,0,0,0,0,0,0
1.709999,-0.03659104,0.0483946,0,0,0,0,0,0,0,0,0,0,0,0,0,0,0,0,-0.04647493,0.02098868,-0.05571994,-0.05273438,-0.9525146,-0.1795654,0,0,0,0,0,0
1.719999,-0.03321413,0.04178552,0,0,0,0,0,0,0,0,0,0,0,0,0,0,0,0,0,0,0,-0.04052734,-0.9716797,-0.1723633,0,0,0,0,0,0
1.729999,-0.02219683,0.02362888,0,0,0,0,0,0,0,0,0,0,0,0,0,0,0,0,0,0,0,-0.01708984,-1.006836,-0.1865234,0,0,0,0,0,0
1.739999,-0.02219683,0.02362888,0,0,0,0,0,0,0,0,0,0,0,0,0,0,0,0,0,0,0,-0.00769043,-1.003662,-0.2081299,0,0,0,0,0,0
1.749999,-0.01823836,0.01823836,0,0,0,0,0,0,0,0,0,0,0,0,0,0,0,0,-0.1664238,0.0189913,-0.1062014,0.04089355,-0.987793,-0.2590332,0,0,0,0,0,0
1.759999,-0.004560402,0.005654898,0,0,0,0,0,0,0,0,0,0,0,0,0,0,0,0,-0.1894132,0.02149016,-0.1032027,0.0546875,-0.9462891,-0.3033447,0,0,0,0,0,0
1.769999,0,0,0,0,0,0,0,0,0,0,0,0,0,0,0,0,0,0,0,0,0,0.03259277,-0.9301758,-0.2866211,0,0,0,0,0,0
1.779999,0,0,0,0,0,0,0,0,0,0,0,0,0,0,0,0,0,0,-0.1759051,0.03972857,-0.1164372,0.06555176,-0.8962402,-0.2890625,0,0,0,0,0,0
1.789999,0,0,0,0,0,0,0,0,0,0,0,0,0,0,0,0,0,0,0,0,0,0.0513916,-0.9042969,-0.2956543,0,0,0,0,0,0
1.799999,0,0,0,0,0,0,0,0,0,0,0,0,0,0,0,0,0,0,0,0,0,0.05566406,-0.9420166,-0.3358154,0,0,0,0,0,0
1.809999,0,0,0,0,0,0,0,0,0,0,0,0,0,0,0,0,0,0,-0.1664238,0.03748283,-0.100454,0.07287598,-0.9080811,-0.355957,0,0,0,0,0,0
1.819999,0,0,0,0,0,0,0,0,0,0,0,0,0,0,0,0,0,0,0,0,0,0.107666,-0.8669434,-0.3931885,0,0,0,0,0,0
1.829999,0,0,0,0,0,0,0,0,0,0,0,0,0,0,0,0,0,0,0,0,0,0.119873,-0.8243408,-0.3834229,0,0,0,0,0,0
1.839999,0,0,0,0,0,0,0,0,0,0,0,0,0,0,0,0,0,0,-0.08621052,-0.009995421,-0.07171715,0.08679199,-0.8189697,-0.4146729,0,0,0,0,0,0
1.849999,0,0,0,0,0,0,0,0,0,0,0,0,0,0,0,0,0,0,0,0,0,0.08544922,-0.7530518,-0.3859863,0,0,0,0,0,0
1.859999,0,0,0,0,0,0,0,0,0,0,0,0,0,0,0,0,0,0,0,0,0,0.04785156,-0.7008057,-0.3302002,0,0,0,0,0,0
1.869999,0,0,0,0,0,0,0,0,0,0,0,0,0,0,0,0,0,0,-0.05950999,-0.01430085,-0.06873635,0.0456543,-0.767334,-0.2532959,0,0,0,0,0,0
1.879999,0,0,0,0,0,0,0,0,0,0,0,0,0,0,0,0,0,0,0,0,0,0.03112793,-0.850708,-0.178833,0,0,0,0,0,0
1.889999,0,0,0,0,0,0,0,0,0,0,0,0,0,0,0,0,0,0,0,0,0,0.04455566,-0.9742432,-0.138916,0,0,0,0,0,0
1.899999,0,0,0,0,0,0,0,0,0,0,0,0,0,0,0,0,0,0,0.08857302,0.006919767,0.04336387,0.06555176,-1.149292,-0.1019287,0,0,0,0,0,0
1.909999,0,0,0,0,0,0,0,0,0,0,0,0,0,0,0,0,0,0,0,0,0,0.05224609,-1.214478,-0.05773926,0,0,0,0,0,0
1.919999,0,0,0,0,0,0,0,0,0,0,0,0,0,0,0,0,0,0,0,0,0,0.006469727,-1.24646,-0.01538086,0,0,0,0,0,0
1.929999,0,0,0,0,0,0,0,0,0,0,0,0,0,0,0,0,0,0,0.1344494,0.01599398,0.1454452,0.01452637,-1.247192,0.02954102,0,0,0,0,0,0
1.939999,0,0,0,0,0,0,0,0,0,0,0,0,0,0,0,0,0,0,0,0,0,-0.03552246,-1.269531,0.03674316,0,0,0,0,0,0
1.949998,0,0,0,0,0,0,0,0,0,0,0,0,0,0,0,0,0,0,0,0,0,0.1134033,-1.149292,0.05456543,0,0,0,0,0,0
1.959998,0,0,0,0,0,0,0,0,0,0,0,0,0,0,0,0,0,0,0,0,0,0.09777832,-1.062622,-0.05712891,0,0,0,0,0,0
1.969998,0,0,0,0,0,0,0,0,0,0,0,0,0,0,0,0,0,0,0,0,0,0.03710938,-0.9465332,-0.1262207,0,0,0,0,0,0
1.979998,0,0,0,0,0,0,0,0,0,0,0,0,0,0,0,0,0,0,0,0,0,-0.0144043,-0.942749,-0.1181641,0,0,0,0,0,0
1.989998,0,0,0,0,0,0,0,0,0,0,0,0,0,0,0,0,0,0,0,0,0,-0.0513916,-0.9613037,-0.05969238,0,0,0,0,0,0
1.999998,0,0,0,0,0,0,0,0,0,0,0,0,0,0,0,1,0,0,0,0,0,-0.01269531,-1.027344,-0.04638672,0,0,0,0,0,0
2.009999,0,0,0,0,0,0,0,0,0,0,0,0,0,0,0,1,0,0,0.007843095,-0.03829275,-0.06505154,-0.01257324,-1.060059,-0.04638672,0,0,0,0,0,0
2.019999,0,0,0,0,0,0,0,0,0,0,0,0,0,0,0,1,0,0,0,0,0,-0.03149414,-1.067017,-0.05847168,0,0,0,0,0,0
2.029999,0,0,0,0,0,0,0,0,0,0,0,0,0,0,0,1,0,0,0,0,0,-0.05041504,-1.087646,-0.01464844,0,0,0,0,0,0
2.039999,0,0,0,0,0,0,0,0,0,0,0,0,0,0,0,1,0,0,0.02848927,-0.04373353,-0.08921641,-0.01184082,-1.139038,-0.08813477,0,0,0,0,0,0
2.049999,0,0,0,0,0,0,0,0,0,0,0,0,0,0,0,1,0,0,0,0,0,-0.03479004,-1.138916,-0.0892334,0,0,0,0,0,0
2.059999,0,0,0,0,0,0,0,0,0,0,0,0,0,0,0,1,0,0,0,0,0,-0.0007324219,-1.1427,-0.08654785,0,0,0,0,0,0
2.069999,0,0,0,0,0,0,0,0,0,0,0,0,0,0,0,1,0,0,0.01474325,-0.02273958,0.03598352,0.02954102,-1.093262,-0.09960938,0,0,0,0,0,0
2.079998,0,0,0,0,0,0,0,0,0,0,0,0,0,0,0,1,0,0,0,0,0,0.0189209,-1.067627,-0.07958984,0,0,0,0,0,0
2.089998,0,0,0,0,0,0,0,0,0,0,0,0,0,0,0,1,0,0,0,0,0,0.04382324,-1.0448,-0.1054688,0,0,0,0,0,0
2.099998,0,0,0,0,0,0,0,0,0,0,0,0,0,0,0,1,0,0,-0.01124485,0.006996796,0.07446589,0.05126953,-0.9958496,-0.1517334,0,0,0,0,0,0
2.109998,0,0,0,0,0,0,0,0,0,0,0,0,0,0,0,1,0,0,0,0,0,0.03601074,-0.9573975,-0.1424561,0,0,0,0,0,0
2.119998,0,0,0,0,0,0,0,0,0,0,0,0,0,0,0,1,0,0,0,0,0,0.01220703,-0.8951416,-0.168335,0,0,0,0,0,0
2.129998,0,0,0,0,0,0,0,0,0,0,0,0,0,0,0,1,0,0,-0.01774187,0.03448421,0.07071761,-0.006469727,-0.8654785,-0.2080078,0,0,0,0,0,0
2.139998,0,0,0,0,0,0,0,0,0,0,0,0,0,0,0,0,0,0,0,0,0,0.0144043,-0.8477783,-0.2119141,0,0,0,0,0,0
2.149998,0,0,0,0,0,0,0,0,0,0,0,0,0,0,0,0,0,0,0,0,0,0.004516602,-0.8081055,-0.2478027,0,0,0,0,0,0
2.159998,-0.003056701,0.04992612,0,0,0,0,0,0,0,0,0,0,0,0,0,0,0,0,0,0,0,-0.009155273,-0.8223877,-0.2697754,0,0,0,0,0,0
2.169998,-0.004565742,0.08674909,0,0,0,0,0,0,0,0,0,0,0,0,0,0,0,0,0,0,0,-0.01599121,-0.848877,-0.2558594,0,0,0,0,0,0
2.179998,-0.0113294,0.1699411,0,0,0,0,0,0,0,0,0,0,0,0,0,0,0,0,0,0,0,-0.0111084,-0.9178467,-0.2215576,0,0,0,0,0,0
2.189998,-0.01876059,0.2438877,0,0,0,0,0,0,0,0,0,0,0,0,0,0,0,0,0,0,0,-0.03320313,-0.8887939,-0.2607422,0,0,0,0,0,0
2.199998,-0.02009391,0.2899264,0,0,0,0,0,0,0,0,0,0,0,0,0,0,0,0,0,0,0,-0.02307129,-0.878418,-0.2689209,0,0,0,0,0,0
2.209998,-0.02751168,0.3454244,0,0,0,0,0,0,0,0,0,0,0,0,0,0,0,0,0,0,0,-0.0009765625,-0.8620605,-0.2716064,0,0,0,0,0,0
2.219998,-0.03503053,0.3917049,0,0,0,0,0,0,0,0,0,0,0,0,0,1,0,0,0.004997711,-0.01174462,-0.04248054,0.01098633,-0.8514404,-0.265625,0,0,0,0,0,0
2.229998,-0.03552187,0.4101162,0,0,0,0,0,0,0,0,0,0,0,0,0,1,0,0,0.008745994,-0.007246681,-0.05947276,0.01013184,-0.8505859,-0.2625732,0,0,0,0,0,0
2.239998,-0.03552187,0.4101162,0,0,0,0,0,0,0,0,0,0,0,0,0,1,0,0,0,0,0,0.01672363,-0.8740234,-0.2713623,0,0,0,0,0,0
2.249998,-0.04200691,0.4103752,-0.02455354,0.01322114,0,0,0,0,0,0,0,0,0,0,0,1,0,0,0,0,0,0.02832031,-0.916748,-0.2706299,0,0,0,0,0,0
2.259998,-0.04200691,0.4103752,-0.08888649,0.03393848,0,0,0,0,0,0,0,0,0,0,0,1,0,0,0,0,0,0.05810547,-0.9555664,-0.2407227,0,0,0,0,0,0
2.269998,-0.04200691,0.4103752,-0.1583426,0.04683373,0,0,0,0,0,0,0,0,0,0,0,1,0,0,0.07396612,0.04298032,-0.03173546,0.07055664,-0.9935303,-0.2387695,0,0,0,0,0,0
2.279998,-0.04850505,0.4106761,-0.2109087,0.04828029,0,0,0,0,0,0,0,0,0,0,0,1,0,0,0,0,0,0.07568359,-1.022217,-0.2387695,0,0,0,0,0,0
2.289998,-0.04850505,0.4106761,-0.2897199,0.01434257,0,0,0,0,0,0,0,0,0,0,0,1,0,0,0,0,0,0.07641602,-1.081055,-0.2174072,0,0,0,0,0,0
2.299998,-0.04850505,0.4106761,-0.3267757,-0.0209856,0,0,0,0,0,0,0,0,0,0,0,1,0,0,0,0,0,0.06445313,-1.123901,-0.1970215,0,0,0,0,0,0
2.309998,-0.04850505,0.4106761,-0.4031442,-0.07417853,0,0,0,0,0,0,0,0,0,0,0,1,0,0,0,0,0,0.05200195,-1.150635,-0.1525879,0,0,0,0,0,0
2.319998,-0.04850505,0.4106761,-0.4720309,-0.1392321,0,0,0,0,0,0,0,0,0,0,0,1,0,0,0,0,0,0.05969238,-1.169922,-0.1535645,0,0,0,0,0,0
2.329998,-0.04850505,0.4106761,-0.511479,-0.1774519,0,0,0,0,0,0,0,0,0,0,0,1,0,0,0,0,0,0.05419922,-1.148071,-0.164917,0,0,0,0,0,0
2.339998,-0.04882165,0.4198662,-0.5612876,-0.2323803,0,0,0,0,0,0,0,0,0,0,0,1,0,0,0,0,0,0.05078125,-1.136475,-0.1894531,0,0,0,0,0,0
2.349998,-0.04942684,0.4382513,-0.6020782,-0.2882677,0,0,0,0,0,0,0,0,0,0,0,1,0,0,0,0,0,0.02661133,-1.108276,-0.2091064,0,0,0,0,0,0
2.359998,-0.04971623,0.4474461,-0.6220471,-0.3128639,0,0,0,0,0,0,0,0,0,0,0,1,0,0,0,0,0,0.008056641,-1.103149,-0.2141113,0,0,0,0,0,0
2.369998,-0.04971623,0.4474461,-0.6331425,-0.3369354,0,0,0,0,0,0,0,0,0,0,0,0,0,0,0,0,0,-0.01586914,-1.092041,-0.1893311,0,0,0,0,0,0
2.379998,-0.04971623,0.4474461,-0.6339008,-0.3447531,0,0,0,0,0,0,0,0,0,0,0,0,0,0,0.005247597,0.02348924,-0.01249428,-0.01208496,-1.052734,-0.1929932,0,0,0,0,0,0
2.389998,-0.04999733,0.4566424,-0.6339008,-0.3447531,0,0,0,0,0,0,0,0,0,0,0,0,0,0,0,0,0,-0.006225586,-1.064697,-0.1724854,0,0,0,0,0,0
2.399998,-0.04971623,0.4474461,-0.6250932,-0.3439862,0,0,0,0,0,0,0,0,0,0,0,0,0,0,0,0,0,-0.001098633,-1.029419,-0.2033691,0,0,0,0,0,0
2.409998,-0.04971623,0.4474461,-0.607513,-0.3424164,0,0,0,0,0,0,0,0,0,0,0,0,0,0,-0.01499435,0.00549793,-0.02249153,0.01196289,-0.9992676,-0.1678467,0,0,0,0,0,0
2.419998,-0.04999733,0.4566424,-0.607513,-0.3424164,0,0,0,0,0,0,0,0,0,0,0,0,0,0,0,0,0,0.01953125,-1.00708,-0.1795654,0,0,0,0,0,0
2.429998,-0.04971623,0.4474461,-0.5987412,-0.3416131,0,0,0,0,0,0,0,0,0,0,0,0,0,0,0,0,0,0.0177002,-0.980957,-0.1821289,0,0,0,0,0,0
2.439998,-0.04971623,0.4474461,-0.5979341,-0.333816,0,0,0,0,0,0,0,0,0,0,0,0,0,0,0,0,0,0.02954102,-1.013428,-0.149292,0,0,0,0,0,0
2.449998,-0.04971623,0.4474461,-0.597132,-0.3260414,0,0,0,0,0,0,0,0,0,0,0,0,0,0,0,0,0,0.01367188,-0.9674072,-0.1696777,0,0,0,0,0,0
2.459998,-0.04971623,0.4474461,-0.6028338,-0.2959366,0,0,0,0,0,0,0,0,0,0,0,0,0,0,0,0,0,0.02331543,-0.9631348,-0.1710205,0,0,0,0,0,0
2.469998,-0.04999733,0.4566424,-0.5991454,-0.2578141,0,0,0,0,0,0,0,0,0,0,0,0,0,0,0,0,0,0.02026367,-0.9493408,-0.1928711,0,0,0,0,0,0
2.479998,-0.04971623,0.4474461,-0.6137113,-0.2215171,0,0,0,0,0,0,0,0,0,0,0,0,0,0,-0.05622425,-0.03798261,-0.0294865,0.03088379,-0.9377441,-0.1829834,0,0,0,0,0,0
2.489998,-0.04971623,0.4474461,-0.6299785,-0.2002822,0,0,0,0,0,0,0,0,0,0,0,0,0,0,0,0,0,0.02966309,-0.932373,-0.1838379,0,0,0,0,0,0
2.499998,-0.04971623,0.4474461,-0.6733673,-0.1729413,0,0,0,0,0,0,0,0,0,0,0,0,0,0,0,0,0,0.02746582,-0.9199219,-0.1889648,0,0,0,0,0,0
2.509998,-0.04971623,0.4474461,-0.7269593,-0.1528479,0,0,0,0,0,0,0,0,0,0,0,0,0,0,-0.02814287,-0.03713936,-0.02629743,0.02539063,-0.9324951,-0.1821289,0,0,0,0,0,0
2.519998,-0.04971623,0.4474461,-0.7629524,-0.1390603,0,0,0,0,0,0,0,0,0,0,0,0,0,0,0,0,0,0.02563477,-0.9228516,-0.184082,0,0,0,0,0,0
2.529998,-0.04971623,0.4474461,-0.8269344,-0.1333765,0,0,0,0,0,0,0,0,0,0,0,1,0,0,0,0,0,0.02819824,-0.9572754,-0.1794434,0,0,0,0,0,0
2.539998,-0.04971623,0.4474461,-0.8453096,-0.1338726,0,0,0,0,0,0,0,0,0,0,0,1,0,0,0,0,0,0.0246582,-0.9559326,-0.1762695,0,0,0,0,0,0
2.549998,-0.04999733,0.4566424,-0.8820719,-0.1348145,0,0,0,0,0,0,0,0,0,0,0,1,0,0,0,0,0,0.02197266,-0.9698486,-0.1776123,0,0,0,0,0,0
2.559998,-0.04971623,0.4474461,-0.9004585,-0.135262,0,0,0,0,0,0,0,0,0,0,0,1,0,0,0.01849153,-0.01024531,0.02223982,0.02172852,-0.9775391,-0.1672363,0,0,0,0,0,0
2.569998,-0.04999733,0.4566424,-0.9004585,-0.135262,0,0,0,0,0,0,0,0,0,0,0,1,0,0,0,0,0,0.0246582,-0.9737549,-0.1654053,0,0,0,0,0,0
2.579998,-0.04999733,0.4566424,-0.9096531,-0.1354803,0,0,0,0,0,0,0,0,0,0,0,1,0,0,0,0,0,0.02331543,-0.9724121,-0.1796875,0,0,0,0,0,0
2.589998,-0.04999733,0.4566424,-0.9096531,-0.1354803,0,0,0,0,0,0,0,0,0,0,0,1,0,0,0.03098833,0.004998118,0.02998871,0.0279541,-0.9685059,-0.1937256,0,0,0,0,0,0
2.599998,-0.04999733,0.4566424,-0.9096531,-0.1354803,0,0,0,0,0,0,0,0,0,0,0,0,0,0,0,0,0,0.0255127,-0.9769287,-0.1915283,0,0,0,0,0,0
2.609998,-0.05027049,0.4658399,-0.9101089,-0.1510393,0,0,0,0,0,0,0,0,0,0,0,0,0,0,0,0,0,0.02148438,-0.9836426,-0.1820068,0,0,0,0,0,0
2.619998,-0.05079426,0.4842386,-0.9009219,-0.1507981,0,0,0,0,0,0,0,0,0,0,0,0,0,0,0.01974096,0.0007496566,0.02523844,0.01391602,-0.9891357,-0.1802979,0,0,0,0,0,0
2.629998,-0.05104548,0.4934396,-0.9011708,-0.1585751,0,0,0,0,0,0,0,0,0,0,0,0,0,0,0,0,0,0.01281738,-0.9925537,-0.1831055,0,0,0,0,0,0
2.639998,-0.05175982,0.5210489,-0.8828083,-0.1580574,0,0,0,0,0,0,0,0,0,0,0,0,0,0,0,0,0,0.02258301,-0.9854736,-0.1790771,0,0,0,0,0,0
2.649998,-0.05220576,0.5394596,-0.8828083,-0.1580574,0,0,0,0,0,0,0,0,0,0,0,0,0,0,-0.001614755,-0.008765811,0.00299883,0.03161621,-0.9975586,-0.1932373,0,0,0,0,0,0
2.659998,-0.05967038,0.5580935,-0.882551,-0.1503035,0,0,0,0,0,0,0,0,0,0,0,0,0,0,0,0,0,0.0222168,-0.9996338,-0.1862793,0,0,0,0,0,0
2.669998,-0.06012575,0.5764999,-0.8820719,-0.1348145,0,0,0,0,0,0,0,0,0,0,0,0,0,0,0,0,0,0.01696777,-0.9984131,-0.1890869,0,0,0,0,0,0
2.679998,-0.06747115,0.5859336,-0.8816412,-0.1193488,0,0,0,0,0,0,0,0,0,0,0,0,0,0,0,0,0,0.02209473,-1.014526,-0.1817627,0,0,0,0,0,0
2.689998,-0.0677098,0.5951335,-0.8814444,-0.111624,0,0,0,0,0,0,0,0,0,0,0,0,0,0,0,0,0,0.02307129,-1.022217,-0.1782227,0,0,0,0,0,0
2.699998,-0.0677098,0.5951335,-0.8807835,-0.08077054,0,0,0,0,0,0,0,0,0,0,0,1,0,0,-0.0124953,-0.001999247,-0.02399097,0.02563477,-1.016724,-0.1759033,0,0,0,0,0,0
2.709998,-0.06817067,0.6135361,-0.8894731,-0.04235586,0,0,0,0,0,0,0,0,0,0,0,1,0,0,-0.01753008,0.00622779,-0.03090829,0.03942871,-1.032715,-0.1844482,0,0,0,0,0,0
2.719998,-0.06817067,0.6135361,-0.8986321,-0.03471111,0,0,0,0,0,0,0,0,0,0,0,1,0,0,0,0,0,0.03479004,-1.002075,-0.1875,0,0,0,0,0,0
2.729998,-0.06839328,0.6227387,-0.9262578,-0.02712889,0,0,0,0,0,0,0,0,0,0,0,1,0,0,0,0,0,0.03637695,-1.015869,-0.1876221,0,0,0,0,0,0
2.739998,-0.06117346,0.6225299,-0.9354839,-0.02717173,0,0,0,0,0,0,0,0,0,0,0,1,0,0,-0.01724351,0.02649003,-0.04948137,0.03430176,-1.025391,-0.1899414,0,0,0,0,0,0
2.749998,-0.05396043,0.6223436,-0.9447098,-0.02721386,0,0,0,0,0,0,0,0,0,0,0,1,0,0,0,0,0,0.04199219,-1.041504,-0.1833496,0,0,0,0,0,0
2.759998,-0.05396043,0.6223436,-0.9447098,-0.02721386,0,0,0,0,0,0,0,0,0,0,0,1,0,0,0,0,0,0.04992676,-1.049561,-0.1687012,0,0,0,0,0,0
2.769998,-0.03955165,0.6220397,-0.9447098,-0.02721386,0,0,0,0,0,0,0,0,0,0,0,1,0,0,0,0,0,0.06848145,-1.047119,-0.1883545,0,0,0,0,0,0
2.779998,-0.03235434,0.6219223,-0.9447576,-0.03499102,0,0,0,0,0,0,0,0,0,0,0,1,0,0,0,0,0,0.07409668,-1.039185,-0.1970215,0,0,0,0,0,0
2.789998,-0.02516068,0.6218283,-0.9450669,-0.0661158,0,0,0,0,0,0,0,0,0,0,0,1,0,0,0,0,0,0.07092285,-1.028198,-0.2022705,0,0,0,0,0,0
2.799998,-0.01796987,0.6217576,-0.945716,-0.1050796,0,0,0,0,0,0,0,0,0,0,0,1,0,0,-0.04098123,0.04597894,-0.0362334,0.0715332,-1.01001,-0.2088623,0,0,0,0,0,0
2.809998,-0.01078111,0.6217105,-0.9462418,-0.128502,0,0,0,0,0,0,0,0,0,0,0,1,0,0,0,0,0,0.0682373,-0.9997559,-0.2139893,0,0,0,0,0,0
2.819998,-0.01078111,0.6217105,-0.9379091,-0.1595613,0,0,0,0,0,0,0,0,0,0,0,0,0,0,0,0,0,0.06811523,-0.9873047,-0.2150879,0,0,0,0,0,0
2.829998,-0.01078111,0.6217105,-0.92061,-0.1903371,0,0,0,0,0,0,0,0,0,0,0,0,0,0,-0.03173805,0.0297388,-0.03998494,0.0703125,-0.9714355,-0.2263184,0,0,0,0,0,0
2.839998,-0.01078111,0.6217105,-0.9032207,-0.2132066,0,0,0,0,0,0,0,0,0,0,0,0,0,0,0,0,0,0.07385254,-0.9746094,-0.2268066,0,0,0,0,0,0
2.849998,-0.01078111,0.6217105,-0.8863676,-0.2438478,0,0,0,0,0,0,0,0,0,0,0,0,0,0,0,0,0,0.07495117,-0.9725342,-0.2172852,0,0,0,0,0,0
2.859998,-0.01078111,0.6217105,-0.8788651,-0.2748873,0,0,0,0,0,0,0,0,0,0,0,0,0,0,0,0,0,0.07788086,-0.9846191,-0.2034912,0,0,0,0,0,0
2.869998,-0.01078111,0.6217105,-0.8706476,-0.2902159,0,0,0,0,0,0,0,0,0,0,0,0,0,0,0,0,0,0.08117676,-0.9810791,-0.2132568,0,0,0,0,0,0
2.879998,-0.01078111,0.6217105,-0.8724975,-0.3218546,0,0,0,0,0,0,0,0,0,0,0,0,0,0,0,0,0,0.07861328,-0.970459,-0.2154541,0,0,0,0,0,0
2.889998,-0.01078111,0.6217105,-0.8734676,-0.3377408,0,0,0,0,0,0,0,0,0,0,0,0,0,0,0,0,0,0.07556152,-0.967041,-0.2092285,0,0,0,0,0,0
2.899998,-0.01081606,0.6309372,-0.8739632,-0.345701,0,0,0,0,0,0,0,0,0,0,0,0,0,0,0,0,0,0.07543945,-0.9715576,-0.2081299,0,0,0,0,0,0
2.909998,-0.01078111,0.6217105,-0.8739632,-0.345701,0,0,0,0,0,0,0,0,0,0,0,0,0,0,0,0,0,0.07458496,-0.9813232,-0.2097168,0,0,0,0,0,0
2.919998,-0.01078111,0.6217105,-0.9101176,-0.3476415,0,0,0,0,0,0,0,0,0,0,0,0,0,0,0,0,0,0.06567383,-0.9968262,-0.1943359,0,0,0,0,0,0
2.929998,0,0.6309112,-0.9644688,-0.3503581,0,0,0,0,0,0,0,0,0,0,0,0,0,0,-0.02698105,-0.006245614,-0.02698105,0.0612793,-0.9985352,-0.1730957,0,0,0,0,0,0
2.939998,0,0.621684,-1,-0.3524597,0,0,0,0,0,0,0,0,0,0,0,0,0,0,0,0,0,0.08215332,-1.008057,-0.1911621,0,0,0,0,0,0
2.949998,0,0.621684,-1,-0.3042357,0,0,0,0,0,0,0,0,0,0,0,0,0,0,0,0,0,0.07531738,-1.009644,-0.2119141,0,0,0,0,0,0
2.959998,0.003593566,0.6216869,-1,-0.2403741,0,0,0,0,0,0,0,0,0,0,0,0,0,0,-0.0362334,-0.007246681,-0.03398444,0.08190918,-0.9837646,-0.2126465,0,0,0,0,0,0
2.969998,0.01078111,0.6217105,-1,-0.2006854,0,0,0,0,0,0,0,0,0,0,0,0,0,0,0,0,0,0.09960938,-0.991333,-0.220459,0,0,0,0,0,0
2.979998,0.01796987,0.6217576,-1,-0.1374799,0,0,0,0,0,0,0,0,0,0,0,0,0,0,0,0,0,0.09228516,-0.9927979,-0.2243652,0,0,0,0,0,0
2.989998,0.01796987,0.6217576,-1,-0.1059862,0,0,0,0,0,0,0,0,0,0,0,1,0,0,0,0,0,0.09753418,-0.9956055,-0.2192383,0,0,0,0,0,0
2.999998,0.02516068,0.6218283,-1,-0.05099206,0,0,0,0,0,0,0,0,0,0,0,1,0,0,0,0,0,0.09509277,-0.9840088,-0.2181396,0,0,0,0,0,0
3.009998,0.02516068,0.6218283,-1,-0.02745281,0,0,0,0,0,0,0,0,0,0,0,1,0,0,0,0,0,0.08605957,-0.9923096,-0.2205811,0,0,0,0,0,0
3.019998,0.02516068,0.6218283,-1,-0.01960851,0,0,0,0,0,0,0,0,0,0,0,1,0,0,0,0,0,0.08532715,-0.9979248,-0.2175293,0,0,0,0,0,0
3.029998,0.03245884,0.6311441,-1,-0.01960851,0,0,0,0,0,0,0,0,0,0,0,1,0,0,0,0,0,0.07922363,-0.9840088,-0.2004395,0,0,0,0,0,0
3.039998,0.03235434,0.6219223,-1,-0.01960851,0,0,0,0,0,0,0,0,0,0,0,1,0,0,0,0,0,0.07592773,-0.9901123,-0.2060547,0,0,0,0,0,0
3.049998,0.03235434,0.6219223,-1,-0.01960851,0,0,0,0,0,0,0,0,0,0,0,0,0,0,0,0,0,0.07910156,-1.008667,-0.2036133,0,0,0,0,0,0
3.059998,0.03235434,0.6219223,-1,-0.01960851,0,0,0,0,0,0,0,0,0,0,0,0,0,0,0,0,0,0.08764648,-1.012817,-0.2027588,0,0,0,0,0,0
3.069998,0.04675342,0.6221802,-1,-0.01960851,0,0,0,0,0,0,0,0,0,0,0,0,0,0,0,0,0,0.08288574,-1.000488,-0.2121582,0,0,0,0,0,0
3.079998,0.05413336,0.6315559,-1,-0.035298,0,0,0,0,0,0,0,0,0,0,0,0,0,0,0.01074508,-0.00224897,0.03648329,0.07055664,-0.9814453,-0.2116699,0,0,0,0,0,0
3.089998,0.06155986,0.6409468,-1,-0.04314433,0,0,0,0,0,0,0,0,0,0,0,0,0,0,0,0,0,0.06201172,-0.9755859,-0.2005615,0,0,0,0,0,0
3.099998,0.06903172,0.6503515,-1,-0.05099206,0,0,0,0,0,0,0,0,0,0,0,0,0,0,0,0,0,0.05529785,-0.9732666,-0.1851807,0,0,0,0,0,0
3.109998,0.07654776,0.6597688,-1,-0.05099206,0,0,0,0,0,0,0,0,0,0,0,0,0,0,-0.01099317,-0.007995035,-0.002248604,0.05993652,-0.9769287,-0.2138672,0,0,0,0,0,0
3.119998,0.07654776,0.6597688,-1,-0.05099206,0,0,0,0,0,0,0,0,0,0,0,0,0,0,0,0,0,0.05419922,-0.9779053,-0.2200928,0,0,0,0,0,0
3.129997,0.0841068,0.6691976,-1,-0.05099206,0,0,0,0,0,0,0,0,0,0,0,0,0,0,-0.02298947,-0.01274416,-0.02049061,0.05236816,-0.9869385,-0.2047119,0,0,0,0,0,0
3.139997,0.08434106,0.6783955,-1,-0.04314433,0,0,0,0,0,0,0,0,0,0,0,0,0,0,0,0,0,0.046875,-0.9969482,-0.1912842,0,0,0,0,0,0
3.149997,0.09195598,0.6878307,-1,-0.01176485,0,0,0,0,0,0,0,0,0,0,0,1,0,0,0,0,0,0.05639648,-0.9862061,-0.1989746,0,0,0,0,0,0
3.159997,0.09243737,0.7062215,-1,0.01960851,0,0,0,0,0,0,0,0,0,0,0,1,0,0,0,0,0,0.06945801,-0.9891357,-0.2037354,0,0,0,0,0,0
3.169997,0.100118,0.7156581,-1,0.04314433,0,0,0,0,0,0,0,0,0,0,0,1,0,0,0,0,0,0.07702637,-0.9870605,-0.2053223,0,0,0,0,0,0
3.179997,0.1006052,0.7340451,-1,0.07454614,0,0,0,0,0,0,0,0,0,0,0,1,0,0,0,0,0,0.08642578,-0.9519043,-0.2296143,0,0,0,0,0,0
3.189997,0.1008416,0.7432401,-1,0.09812176,0,0,0,0,0,0,0,0,0,0,0,1,0,0,-0.04947951,-0.01899206,-0.08146606,0.07873535,-0.9580078,-0.2470703,0,0,0,0,0,0
3.199997,0.108838,0.7618659,-1,0.1059862,0,0,0,0,0,0,0,0,0,0,0,1,0,0,0,0,0,0.07299805,-0.9616699,-0.2382813,0,0,0,0,0,0
3.209997,0.108838,0.7618659,-1,0.113854,0,0,0,0,0,0,0,0,0,0,0,1,0,0,0,0,0,0.07250977,-0.9660645,-0.2265625,0,0,0,0,0,0
3.219997,0.1090767,0.7710592,-1,0.113854,0,0,0,0,0,0,0,0,0,0,0,1,0,0,0.01474445,-0.005747836,-0.006247648,0.07897949,-0.9765625,-0.2340088,0,0,0,0,0,0
3.229997,0.1093109,0.7802535,-1,0.113854,0,0,0,0,0,0,0,0,0,0,0,1,0,0,0,0,0,0.07214355,-0.980957,-0.2138672,0,0,0,0,0,0
3.239997,0.1171301,0.7896838,-1,0.113854,0,0,0,0,0,0,0,0,0,0,0,1,0,0,0.02723753,0.003748283,0.02448878,0.09265137,-1.032715,-0.2052002,0,0,0,0,0,0
3.249997,0.1173703,0.7988755,-1,0.113854,0,0,0,0,0,0,0,0,0,0,0,1,0,0,0,0,0,0.1099854,-1.056396,-0.2021484,0,0,0,0,0,0
3.259997,0.1254765,0.8174983,-1,0.113854,0,0,0,0,0,0,0,0,0,0,0,1,0,0,0,0,0,0.1134033,-1.020996,-0.2070313,0,0,0,0,0,0
3.269997,0.1415643,0.8455597,-1,0.1059862,0,0,0,0,0,0,0,0,0,0,0,1,0,0,0.008745994,0.008745994,0.0537254,0.1087646,-0.9876709,-0.2515869,0,0,0,0,0,0
3.279997,0.1418186,0.8547445,-1,0.08240198,0,0,0,0,0,0,0,0,0,0,0,1,0,0,0,0,0,0.08654785,-0.9667969,-0.2576904,0,0,0,0,0,0
3.289997,0.1500499,0.8733671,-1,0.05099206,0,0,0,0,0,0,0,0,0,0,0,0,0,0,0,0,0,0.06542969,-0.9559326,-0.2442627,0,0,0,0,0,0
3.299997,0.1505528,0.8917359,-1,0.01960851,0,0,0,0,0,0,0,0,0,0,0,0,0,0,0.01522349,-0.007842403,0.01360887,0.05847168,-0.9638672,-0.2449951,0,0,0,0,0,0
3.309997,0.1507981,0.9009219,-1,0.01176485,0,0,0,0,0,0,0,0,0,0,0,0,0,0,0,0,0,0.06530762,-0.9812012,-0.2312012,0,0,0,0,0,0
3.319997,0.1507981,0.9009219,-1,0,0,0,0,0,0,0,0,0,0,0,0,0,0,0,0,0,0,0.05444336,-0.9716797,-0.222168,0,0,0,0,0,0
3.329997,0.1507981,0.9009219,-1,-0.003921574,0,0,0,0,0,0,0,0,0,0,0,0,0,0,0,0,0,0.05407715,-0.9743652,-0.1778564,0,0,0,0,0,0
3.339997,0.1507981,0.9009219,-1,-0.003921574,0,0,0,0,0,0,0,0,0,0,0,0,0,0,0,0,0,0.06140137,-0.9849854,-0.2128906,0,0,0,0,0,0
3.349997,0.1507981,0.9009219,-1,-0.003921574,0,0,0,0,0,0,0,0,0,0,0,0,0,0,0,0,0,0.03405762,-0.9647217,-0.1975098,0,0,0,0,0,0
3.359997,0.1507981,0.9009219,-1,-0.003921574,0,0,0,0,0,0,0,0,0,0,0,0,0,0,0,0,0,0.0637207,-1.019165,-0.1624756,0,0,0,0,0,0
3.369997,0.1507981,0.9009219,-1,0,0,0,0,0,0,0,0,0,0,0,0,0,0,0,0,0,0,0.1063232,-1.133911,-0.1175537,0,0,0,0,0,0
3.379997,0.1507981,0.9009219,-1,0.035298,0,0,0,0,0,0,0,0,0,0,0,0,0,0,0,0,0,0.046875,-0.9724121,-0.24646,0,0,0,0,0,0
3.389997,0.1510393,0.9101089,-1,0.06669273,0,0,0,0,0,0,0,0,0,0,0,0,0,0,0,0,0,0.09558105,-1.00647,-0.2180176,0,0,0,0,0,0
3.399997,0.1512767,0.9192969,-1,0.1059862,0,0,0,0,0,0,0,0,0,0,0,0,0,0,-0.02523844,-0.01224439,-0.01399359,0.06494141,-0.9703369,-0.1853027,0,0,0,0,0,0
3.409997,0.1512767,0.9192969,-1,0.1296006,0,0,0,0,0,0,0,0,0,0,0,1,0,0,0,0,0,0.05822754,-0.9908447,-0.1861572,0,0,0,0,0,0
3.419997,0.1512767,0.9192969,-1,0.1611441,0,0,0,0,0,0,0,0,0,0,0,1,0,0,0,0,0,0.06787109,-1.001099,-0.1745605,0,0,0,0,0,0
3.429997,0.1512767,0.9192969,-1,0.1927661,0,0,0,0,0,0,0,0,0,0,0,1,0,0,0,0,0,0.06530762,-1.011597,-0.1391602,0,0,0,0,0,0
3.439997,0.1512767,0.9192969,-1,0.2086106,0,0,0,0,0,0,0,0,0,0,0,1,0,0,0,0,0,0.05480957,-0.9312744,-0.2474365,0,0,0,0,0,0
3.449997,0.1515103,0.9284859,-1,0.2165419,0,0,0,0,0,0,0,0,0,0,0,1,0,0,0,0,0,0.09179688,-0.9694824,-0.276001,0,0,0,0,0,0
3.459997,0.1515103,0.9284859,-1,0.2244794,0,0,0,0,0,0,0,0,0,0,0,1,0,0,0,0,0,0.06958008,-0.9688721,-0.2346191,0,0,0,0,0,0
3.469997,0.1515103,0.9284859,-1,0.2244794,0,0,0,0,0,0,0,0,0,0,0,1,0,0,0,0,0,0.08374023,-0.9846191,-0.2473145,0,0,0,0,0,0
3.479997,0.1437055,0.9282597,-1,0.2244794,0,0,0,0,0,0,0,0,0,0,0,1,0,0,0,0,0,0.07287598,-0.9951172,-0.2164307,0,0,0,0,0,0
3.489997,0.1437055,0.9282597,-1,0.2244794,0,0,0,0,0,0,0,0,0,0,0,1,0,0,0,0,0,0.08874512,-0.9898682,-0.22229,0,0,0,0,0,0
3.499997,0.1437055,0.9282597,-1,0.2244794,0,0,0,0,0,0,0,0,0,0,0,1,0,0,0,0,0,0.08776855,-0.9946289,-0.2316895,0,0,0,0,0,0
3.509997,0.1437055,0.9282597,-1,0.2244794,0,0,0,0,0,0,0,0,0,0,0,1,0,0,0,0,0,0.07104492,-0.9671631,-0.2202148,0,0,0,0,0,0
3.519997,0.1437055,0.9282597,-1,0.2006854,0,0,0,0,0,0,0,0,0,0,0,1,0,0,0,0,0,0.1046143,-0.9802246,-0.2519531,0,0,0,0,0,0
3.529997,0.1437055,0.9282597,-1,0.1848525,0,0,0,0,0,0,0,0,0,0,0,1,0,0,0,0,0,0.09741211,-0.9871826,-0.2646484,0,0,0,0,0,0
3.539997,0.1437055,0.9282597,-1,0.1296006,0,0,0,0,0,0,0,0,0,0,0,1,0,0,0,0,0,0.09802246,-1.001465,-0.2480469,0,0,0,0,0,0
3.549997,0.1359061,0.9280447,-1,0.09026043,0,0,0,0,0,0,0,0,0,0,0,0,0,0,0,0,0,0.08996582,-1,-0.232666,0,0,0,0,0,0
3.559997,0.1359061,0.9280447,-0.9914975,0.09013613,0,0,0,0,0,0,0,0,0,0,0,0,0,0,0,0,0,0.06933594,-0.942749,-0.2452393,0,0,0,0,0,0
3.569997,0.1359061,0.9280447,-0.9177802,0.08906728,0,0,0,0,0,0,0,0,0,0,0,0,0,0,0,0,0,0.06604004,-0.9006348,-0.2375488,0,0,0,0,0,0
3.579997,0.1281119,0.9278408,-0.8532957,0.08800808,0,0,0,0,0,0,0,0,0,0,0,0,0,0,0,0,0,0.07177734,-0.9425049,-0.2064209,0,0,0,0,0,0
3.589997,0.1203226,0.9276482,-0.8256658,0.08751296,0,0,0,0,0,0,0,0,0,0,0,0,0,0,0.01399359,-0.007746452,-0.02573821,0.06518555,-0.9624023,-0.2457275,0,0,0,0,0,0
3.599997,0.1203226,0.9276482,-0.7796261,0.08662512,0,0,0,0,0,0,0,0,0,0,0,0,0,0,0,0,0,0.05065918,-0.9488525,-0.2116699,0,0,0,0,0,0
3.609997,0.1123611,0.9182615,-0.7151961,0.08523062,0,0,0,0,0,0,0,0,0,0,0,0,0,0,0,0,0,0.06616211,-0.9868164,-0.1901855,0,0,0,0,0,0
3.619997,0.09682792,0.9179287,-0.6416097,0.083373,0,0,0,0,0,0,0,0,0,0,0,0,0,0,0.02698709,-0.00415186,-0.0246805,0.0703125,-1.024658,-0.1834717,0,0,0,0,0,0
3.629997,0.09682792,0.9179287,-0.5313726,0.07987954,0,0,0,0,0,0,0,0,0,0,0,0,0,0,0,0,0,0.09765625,-1.106201,-0.1369629,0,0,0,0,0,0
3.639997,0.08906728,0.9177802,-0.2487481,0.06287039,0,0,0,0,0,0,0,0,0,0,0,0,0,0,0,0,0,0.05371094,-1.112183,-0.1286621,0,0,0,0,0,0
3.649997,0.08906728,0.9177802,0,0,0,0,0,0,0,0,0,0,0,0,0,0,0,0,-0.0288349,-0.001845434,0.01061124,0.01306152,-1.057617,-0.1750488,0,0,0,0,0,0
3.659997,0.08131021,0.9176438,0,0,0,0,0,0,0,0,0,0,0,0,0,1,0,0,-0.03829613,-0.006920988,-0.009920082,0.02758789,-0.9866943,-0.1401367,0,0,0,0,0,0
3.669997,0.08131021,0.9176438,0,0,0,0,0,0,0,0,0,0,0,0,0,1,0,0,0,0,0,0.07128906,-1.124878,-0.046875,0,0,0,0,0,0
3.679997,0.08143955,0.9268596,0,0,0,0,0,0,0,0,0,0,0,0,0,1,0,0,0,0,0,0.08215332,-0.9665527,-0.3061523,0,0,0,0,0,0
3.689997,0.08156676,0.9360756,0,0,0,0,0,0,0,0,0,0,0,0,0,1,0,0,-0.04323372,-0.01574407,-0.001499435,0.1077881,-0.980957,-0.326416,0,0,0,0,0,0
3.699997,0.08156676,0.9360756,0,0,0,0,0,0,0,0,0,0,0,0,0,1,0,0,0,0,0,0.09240723,-0.9455566,-0.2653809,0,0,0,0,0,0
3.709997,0.08156676,0.9360756,0,0,0,0,0,0,0,0,0,0,0,0,0,1,0,0,0,0,0,0.1087646,-0.9359131,-0.2674561,0,0,0,0,0,0
3.719997,0.08156676,0.9360756,0,0,0,0,0,0,0,0,0,0,0,0,0,1,0,0,0,0,0,0.08117676,-0.9465332,-0.2529297,0,0,0,0,0,0
3.729997,0.08156676,0.9360756,0,0,0,0,0,0,0,0,0,0,0,0,0,1,0,0,0,0,0,0.08752441,-0.9499512,-0.2381592,0,0,0,0,0,0
3.739997,0.08156676,0.9360756,0,0,0,0,0,0,0,0,0,0,0,0,0,1,0,0,0,0,0,0.09228516,-0.9663086,-0.2336426,0,0,0,0,0,0
3.749997,0.08156676,0.9360756,0,0,0,0,0,0,0,0,0,0,0,0,0,1,0,0,0,0,0,0.09362793,-0.9909668,-0.182251,0,0,0,0,0,0
3.759997,0.07378901,0.9359553,0,0,0,0,0,0,0,0,0,0,0,0,0,1,0,0,0.02273958,0.02298947,0.05197619,0.09765625,-0.9853516,-0.2298584,0,0,0,0,0,0
3.769997,0.07378901,0.9359553,0,0,0,0,0,0,0,0,0,0,0,0,0,1,0,0,0,0,0,0.0994873,-0.9876709,-0.269043,0,0,0,0,0,0
3.779997,0.08156676,0.9360756,0,0,0,0,0,0,0,0,0,0,0,0,0,1,0,0,0,0,0,0.08496094,-0.9794922,-0.2617188,0,0,0,0,0,0
3.789997,0.07378901,0.9359553,0,0,0,0,0,0,0,0,0,0,0,0,0,1,0,0,0,0,0,0.07702637,-0.9655762,-0.2427979,0,0,0,0,0,0
3.799997,0.07378901,0.9359553,0,0,0,0,0,0,0,0,0,0,0,0,0,0,0,0,0,0,0,0.0423584,-0.9521484,-0.236084,0,0,0,0,0,0
3.809997,0.0660141,0.9358469,0,0,0,0,0,0,0,0,0,0,0,0,0,0,0,0,0,0,0,0.03161621,-0.9523926,-0.229248,0,0,0,0,0,0
3.819997,0.05039228,0.9264427,0,0,0,0,0,0,0,0,0,0,0,0,0,0,0,0,0.009996235,-0.01649379,-0.001749341,0.02282715,-0.9442139,-0.2154541,0,0,0,0,0,0
3.829997,0.034769,0.9078571,0,0,0,0,0,0,0,0,0,0,0,0,0,0,0,0,0,0,0,0.02648926,-0.9760742,-0.2125244,0,0,0,0,0,0
3.839997,0.01918198,0.8708618,0,0,0,0,0,0,0,0,0,0,0,0,0,0,0,0,0,0,0,0.02429199,-0.9777832,-0.2038574,0,0,0,0,0,0
3.849997,0.01140138,0.8246997,0,0,0,0,0,0,0,0,0,0,0,0,0,0,0,0,-0.006247139,-0.02998627,-0.0154929,0.02709961,-0.9776611,-0.197998,0,0,0,0,0,0
3.859997,0,0.7785468,0,0,0,0,0,0,0,0,0,0,0,0,0,0,0,0,0,0,0,0.03808594,-0.9904785,-0.2005615,0,0,0,0,0,0
3.869997,-0.01106938,0.7047508,0,0,0,0,0,0,0,0,0,0,0,0,0,0,0,0,0,0,0,0.05847168,-0.9960938,-0.2025146,0,0,0,0,0,0
3.879997,-0.01819503,0.6586601,0,0,0,0,0,0,0,0,0,0,0,0,0,0,0,0,0,0,0,0.06262207,-0.9976807,-0.2103271,0,0,0,0,0,0
3.889997,-0.03202588,0.5942581,0.004210616,0.001479406,0,0,0,0,0,0,0,0,0,0,0,0,0,0,0,0,0,0.0690918,-0.9909668,-0.2091064,0,0,0,0,0,0
3.899997,-0.04484009,0.5208349,0.01522274,0.0058549,0,0,0,0,0,0,0,0,0,0,0,0,0,0,0,0,0,0.06884766,-1.004517,-0.2019043,0,0,0,0,0,0
3.909997,-0.04971623,0.4474461,0.02904437,0.01345959,0,0,0,0,0,0,0,0,0,0,0,0,0,0,0,0,0,0.06945801,-1.0177,-0.2032471,0,0,0,0,0,0
3.919997,-0.04557158,0.3372297,0.04277619,0.02288029,0,0,0,0,0,0,0,0,0,0,0,1,0,0,0,0,0,0.07226563,-0.9998779,-0.2211914,0,0,0,0,0,0
3.929997,-0.03922058,0.2274794,0.04277619,0.02288029,0,0,0,0,0,0,0,0,0,0,0,1,0,0,0,0,0,0.07897949,-0.9957275,-0.2429199,0,0,0,0,0,0
3.939997,-0.02429357,0.09231556,0.04277619,0.02288029,0,0,0,0,0,0,0,0,0,0,0,1,0,0,0.009227169,-0.007381736,-0.003690868,0.06982422,-1.014648,-0.2105713,0,0,0,0,0,0
3.949997,-0.0058549,0.01522274,0.04277619,0.02288029,0,0,0,0,0,0,0,0,0,0,0,1,0,0,0,0,0,0.07885742,-1.010376,-0.2060547,0,0,0,0,0,0
3.959997,0,0,0.04277619,0.02288029,0,0,0,0,0,0,0,0,0,0,0,0,0,0,0,0,0,0.0916748,-1.033936,-0.2033691,0,0,0,0,0,0
3.969997,0,0,0.04277619,0.02288029,0,0,0,0,0,0,0,0,0,0,0,0,0,0,-0.006997366,0.01049605,0.02773956,0.1020508,-1.031128,-0.1795654,0,0,0,0,0,0
3.979997,0,0,0.02904437,0.01345959,0,0,0,0,0,0,0,0,0,0,0,0,0,0,0,0,0,0.1051025,-1.006226,-0.2088623,0,0,0,0,0,0
3.989997,0,0,0,0,0,0,0,0,0,0,0,0,0,0,0,0,0,0,0,0,0,0.07543945,-0.9691162,-0.2299805,0,0,0,0,0,0
3.999997,0,0,0,0,0,0,0,0,0,0,0,0,0,0,0,0,0,0,-0.009494877,0.02148841,0.01599137,0.05688477,-0.9503174,-0.2254639,0,0,0,0,0,0
4.009997,0,0,0,0,0,0,0,0,0,0,0,0,0,0,0,0,0,0,0,0,0,0.05126953,-0.9467773,-0.2275391,0,0,0,0,0,0
4.019997,0,0,0,0,0,0,0,0,0,0,0,0,0,0,0,0,0,0,0,0,0,0.04589844,-0.9543457,-0.2254639,0,0,0,0,0,0
4.029997,0,0,0,0,0,0,0,0,0,0,0,0,0,0,0,0,0,0,-0.01849304,0.00549793,-0.01324501,0.02856445,-0.984375,-0.2393799,0,0,0,0,0,0
4.039998,0,0,0,0,0,0,0,0,0,0,0,0,0,0,0,0,0,0,0,0,0,0.01977539,-1.002197,-0.2244873,0,0,0,0,0,0
4.049998,0,0,0,0,0,0,0,0,0,0,0,0,0,0,0,0,0,0,0,0,0,0.0291748,-1.005493,-0.2072754,0,0,0,0,0,0
4.059998,0,0,0,0,0,0,0,0,0,0,0,0,0,0,0,1,0,0,0,0,0,0.0345459,-0.9847412,-0.2106934,0,0,0,0,0,0
4.069998,0,0,0,0,0,0,0,0,0,0,0,0,0,0,0,1,0,0,0,0,0,0.06188965,-1.005737,-0.2249756,0,0,0,0,0,0
4.079998,0,0,0,0,0,0,0,0,0,0,0,0,0,0,0,1,0,0,0,0,0,0.08422852,-0.9645996,-0.2692871,0,0,0,0,0,0
4.089999,0,0,0,0,0,0,0,0,0,0,0,0,0,0,0,1,0,0,-0.04774639,-0.03021632,-0.04751573,0.0826416,-1.002319,-0.2045898,0,0,0,0,0,0
4.099999,0,0,0,0,0,0,0,0,0,0,0,0,0,0,0,1,0,0,0,0,0,0.08447266,-0.9605713,-0.2679443,0,0,0,0,0,0
4.109999,0,0,0,0,0,0,0,0,0,0,0,0,0,0,0,1,0,0,0,0,0,0.09179688,-0.9625244,-0.2740479,0,0,0,0,0,0
4.119999,0,0,0,0,0,0,0,0,0,0,0,0,0,0,0,1,0,0,0.01124577,-0.0169936,-0.002998871,0.08691406,-0.9718018,-0.2355957,0,0,0,0,0,0
4.13,0,0,0,0,0,0,0,0,0,0,0,0,0,0,0,1,0,0,0,0,0,0.08544922,-0.9625244,-0.2230225,0,0,0,0,0,0
4.14,0,0,0,0,0,0,0,0,0,0,0,0,0,0,0,1,0,0,0.03198535,0.00224897,0.02548833,0.09521484,-0.9748535,-0.2276611,0,0,0,0,0,0
4.15,0,0,0,0,0,0,0,0,0,0,0,0,0,0,0,1,0,0,0,0,0,0.1154785,-0.9832764,-0.2510986,0,0,0,0,0,0
4.16,0,0,0,0,0,0,0,0,0,0,0,0,0,0,0,1,0,0,0.05422958,0.01899285,0.08246895,0.1113281,-0.9575195,-0.260498,0,0,0,0,0,0
4.170001,0,0,0,0,0,0,0,0,0,0,0,0,0,0,0,0,0,0,0,0,0,0.09814453,-0.9245605,-0.2705078,0,0,0,0,0,0
4.180001,0,0,0,0,0,0,0,0,0,0,0,0,0,0,0,0,0,0,0,0,0,0.07495117,-0.8754883,-0.2729492,0,0,0,0,0,0
4.190001,0,0,0,0,0,0,0,0,0,0,0,0,0,0,0,0,0,0,0.1032027,0.003248512,0.08146269,0.05358887,-0.8574219,-0.2841797,0,0,0,0,0,0
4.200001,0,0,0,0,0,0,0,0,0,0,0,0,0,0,0,0,0,0,0,0,0,0.03491211,-0.833374,-0.2835693,0,0,0,0,0,0
4.210001,0,0,0,0,0,0,0,0,0,0,0,0,0,0,0,0,0,0,0,0,0,0.02758789,-0.8463135,-0.2219238,0,0,0,0,0,0
4.220002,0,0,0,0,0,0,0,0,0,0,0,0,0,0,0,0,0,0,0,0,0,0.0213623,-0.9394531,-0.1986084,0,0,0,0,0,0
4.230002,0,0,0,0,0,0,0,0,0,0,0,0,0,0,0,0,0,0,0,0,0,-0.002807617,-0.984375,-0.131958,0,0,0,0,0,0
4.240002,0,0,0,0,0,0,0,0,0,0,0,0,0,0,0,0,0,0,0,0,0,0.03161621,-1.20752,-0.04907227,0,0,0,0,0,0
4.250002,0,0,0,0,0,0,0,0,0,0,0,0,0,0,0,0,0,0,0,0,0,0.01916504,-1.129395,-0.1420898,0,0,0,0,0,0
4.260003,0,0,0,0,0,0,0,0,0,0,0,0,0,0,0,0,0,0,0,0,0,0.03564453,-1.164307,-0.1330566,0,0,0,0,0,0
4.270003,0,0,0,0,0,0,0,0,0,0,0,0,0,0,0,1,0,0,0,0,0,0.03552246,-1.171021,-0.08837891,0,0,0,0,0,0
4.280003,0,0,0,0,0,0,0,0,0,0,0,0,0,0,0,1,0,0,-0.07957732,-0.03575213,-0.04082663,0.04614258,-1.116211,-0.1030273,0,0,0,0,0,0
4.290003,0,0,0,0,0,0,0,0,0,0,0,0,0,0,0,1,0,0,0,0,0,0.05395508,-1.085815,-0.1624756,0,0,0,0,0,0
4.300004,0,0,-0.002102181,0.03153272,0,0,0,0,0,0,0,0,0,0,0,1,0,0,0,0,0,0.0645752,-1.00354,-0.1756592,0,0,0,0,0,0
4.310004,0,0,-0.004229449,0.0775399,0,0,0,0,0,0,0,0,0,0,0,1,0,0,-0.09869676,-0.03323207,-0.05147223,0.07543945,-0.9664307,-0.2570801,0,0,0,0,0,0
4.320004,0,0,-0.004879327,0.09596009,0,0,0,0,0,0,0,0,0,0,0,1,0,0,0,0,0,0.078125,-0.9522705,-0.2575684,0,0,0,0,0,0
4.330004,0,0,-0.005172426,0.1051727,0,0,0,0,0,0,0,0,0,0,0,1,0,0,0,0,0,0.07775879,-0.9317627,-0.2568359,0,0,0,0,0,0
4.340004,0,0,-0.005172426,0.1051727,0,0,0,0,0,0,0,0,0,0,0,1,0,0,0,0,0,0.07727051,-0.9202881,-0.2357178,0,0,0,0,0,0
4.350005,0,0,-0.005172426,0.1051727,0,0,0,0,0,0,0,0,0,0,0,1,0,0,0,0,0,0.07946777,-0.9133301,-0.2449951,0,0,0,0,0,0
4.360005,0,0,-0.005172426,0.1051727,0,0,0,0,0,0,0,0,0,0,0,1,0,0,0,0,0,0.06774902,-0.9034424,-0.239624,0,0,0,0,0,0
4.370005,0,0,-0.003056701,0.04992612,0,0,0,0,0,0,0,0,0,0,0,1,0,0,0,0,0,0.09313965,-0.9484863,-0.246582,0,0,0,0,0,0
4.380005,0,0,0,0,0,0,0,0,0,0,0,0,0,0,0,1,0,0,0.07571533,0.03048604,0.06472036,0.08325195,-0.9493408,-0.25354,0,0,0,0,0,0
4.390006,0,0,0,0,0,0,0,0,0,0,0,0,0,0,0,1,0,0,0,0,0,0.08068848,-0.9560547,-0.2508545,0,0,0,0,0,0
4.400006,0,0,0,0,0,0,0,0,0,0,0,0,0,0,0,0,0,0,0,0,0,0.04492188,-0.9633789,-0.2026367,0,0,0,0,0,0
4.410006,0,0,0,0,0,0,0,0,0,0,0,0,0,0,0,0,0,0,0.0622215,0.01424348,0.05547459,0.02905273,-0.970459,-0.213501,0,0,0,0,0,0
4.420006,0,0,0,0,0,0,0,0,0,0,0,0,0,0,0,0,0,0,0,0,0,0.01623535,-0.9593506,-0.2062988,0,0,0,0,0,0
4.430007,0,0,0,0,0,0,0,0,0,0,0,0,0,0,0,0,0,0,0,0,0,0.01257324,-0.9720459,-0.213501,0,0,0,0,0,0
4.440007,0,0,0,0,0,0,0,0,0,0,0,0,0,0,0,0,0,0,0,0,0,0.01464844,-1.005859,-0.1330566,0,0,0,0,0,0
4.450007,0,0,0,0,0,0,0,0,0,0,0,0,0,0,0,0,0,0,0,0,0,0.01000977,-1.022583,-0.1470947,0,0,0,0,0,0
4.460007,0,0,0,0,0,0,0,0,0,0,0,0,0,0,0,0,0,0,0,0,0,-0.0008544922,-0.9975586,-0.1505127,0,0,0,0,0,0
4.470007,0,0,0,0,0,0,0,0,0,0,0,0,0,0,0,0,0,0,0,0,0,0.0189209,-1.019775,-0.177002,0,0,0,0,0,0
4.480008,0,0,0,0,0,0,0,0,0,0,0,0,0,0,0,0,0,0,-0.01599398,-0.01799322,0.007247271,0.02807617,-1.038696,-0.1564941,0,0,0,0,0,0
4.490008,0,0,0,0,0,0,0,0,0,0,0,0,0,0,0,0,0,0,0,0,0,0.01904297,-1.015259,-0.1417236,0,0,0,0,0,0
4.500008,0,0,0,0,0,0,0,0,0,0,0,0,0,0,0,1,0,0,0,0,0,0.008911133,-1.051025,-0.112793,0,0,0,0,0,0
4.510008,0,0,0,0,0,0,0,0,0,0,0,0,0,0,0,1,0,0,0,0,0,0.01977539,-1.085449,-0.07971191,0,0,0,0,0,0
4.520009,0,0,0,0,0,0,0,0,0,0,0,0,0,0,0,1,0,0,0,0,0,0.01757813,-0.8994141,-0.08093262,0,0,0,0,0,0
4.530009,0,0,0,0,0,0,0,0,0,0,0,0,0,0,0,1,0,0,-0.04273043,0.01474325,-0.01099496,0.08032227,-1.006104,-0.2814941,0,0,0,0,0,0
4.540009,0,0,0,0,0,0,0,0,0,0,0,0,0,0,0,1,0,0,0,0,0,0.06433105,-1.003052,-0.2744141,0,0,0,0,0,0
4.550009,0,0,0,0,0,0,0,0,0,0,0,0,0,0,0,1,0,0,0,0,0,0.07922363,-1.014282,-0.2402344,0,0,0,0,0,0
4.560009,0,0,0,0,0,0,0,0,0,0,0,0,0,0,0,1,0,0,0,0,0,0.0612793,-0.989502,-0.2265625,0,0,0,0,0,0
4.57001,0,0,0,0,0,0,0,0,0,0,0,0,0,0,0,1,0,0,0,0,0,0.06066895,-0.9832764,-0.2346191,0,0,0,0,0,0
4.58001,0,0,0,0,0,0,0,0,0,0,0,0,0,0,0,1,0,0,0,0,0,0.04431152,-0.9810791,-0.244873,0,0,0,0,0,0
4.59001,0,0,0,0,0,0,0,0,0,0,0,0,0,0,0,1,0,0,0,0,0,0.04174805,-0.9780273,-0.2314453,0,0,0,0,0,0
4.60001,0,0,0,0,0,0,0,0,0,0,0,0,0,0,0,1,0,0,0,0,0,0.05175781,-0.9832764,-0.2264404,0,0,0,0,0,0
4.610011,0,0,0,0,0,0,0,0,0,0,0,0,0,0,0,1,0,0,0,0,0,0.08959961,-1.010254,-0.1772461,0,0,0,0,0,0
4.620011,0,0,0,0,0,0,0,0,0,0,0,0,0,0,0,1,0,0,0,0,0,0.05615234,-0.9959717,-0.1658936,0,0,0,0,0,0
4.630011,0,0,0,0,0,0,0,0,0,0,0,0,0,0,0,1,0,0,0.1171963,0.05322562,0.1464329,0.05224609,-0.9700928,-0.2502441,0,0,0,0,0,0
4.640011,0,0,0,0,0,0,0,0,0,0,0,0,0,0,0,1,0,0,0.05572448,0.008246223,0.04522929,0.0168457,-0.9454346,-0.2316895,0,0,0,0,0,0
4.650012,0,0,0,0,0,0,0,0,0,0,0,0,0,0,0,0,0,0,0,0,0,0.006469727,-0.9327393,-0.2080078,0,0,0,0,0,0
4.660012,0,0,0,0,0,0,0,0,0,0,0,0,0,0,0,0,0,0,0,0,0,-0.01074219,-0.9543457,-0.1915283,0,0,0,0,0,0
4.670012,0,0,0,0,0,0,0,0,0,0,0,0,0,0,0,0,0,0,0.03390685,-0.01591546,-0.004613177,-0.01379395,-0.9755859,-0.1612549,0,0,0,0,0,0
4.680012,0,0,0,0,0,0,0,0,0,0,0,0,0,0,0,0,0,0,0,0,0,-0.008422852,-0.9903564,-0.1427002,0,0,0,0,0,0
4.690012,0,0,0,0,0,0,0,0,0,0,0,0,0,0,0,0,0,0,0,0,0,-0.01245117,-1.003784,-0.1258545,0,0,0,0,0,0
4.700013,0,0,0,0,0,0,0,0,0,0,0,0,0,0,0,0,0,0,0,0,0,-0.005249023,-1.043457,-0.1400146,0,0,0,0,0,0
4.710013,0,0,0,0,0,0,0,0,0,0,0,0,0,0,0,0,0,0,0,0,0,-0.004272461,-1.067139,-0.1282959,0,0,0,0,0,0
4.720013,0,0,0,0,0,0,0,0,0,0,0,0,0,0,0,1,0,0,0,0,0,0.002319336,-1.082275,-0.1071777,0,0,0,0,0,0
4.730013,0,0,0,0,0,0,0,0,0,0,0,0,0,0,0,1,0,0,-0.050481,-0.01124577,-0.02149191,-0.003173828,-1.098145,-0.07873535,0,0,0,0,0,0
4.740014,0,0,0,0,0,0,0,0,0,0,0,0,0,0,0,1,0,0,0,0,0,0.007568359,-1.004028,-0.05444336,0,0,0,0,0,0
4.750014,0,0,0,0,0,0,0,0,0,0,0,0,0,0,0,1,0,0,0,0,0,0.02197266,-0.9865723,-0.2019043,0,0,0,0,0,0
4.760014,0,0,0,0,0,0,0,0,0,0,0,0,0,0,0,1,0,0,-0.04397986,-0.01399359,-0.041481,0.06262207,-1.018677,-0.2687988,0,0,0,0,0,0
4.770014,0,0,0,0,0,0,0,0,0,0,0,0,0,0,0,1,0,0,0,0,0,0.04431152,-1.000244,-0.2113037,0,0,0,0,0,0
4.780015,0,0,0,0,0,0,0,0,0,0,0,0,0,0,0,1,0,0,0,0,0,0.06665039,-0.9907227,-0.2183838,0,0,0,0,0,0
4.790015,0,0,0,0,0,0,0,0,0,0,0,0,0,0,0,1,0,0,-0.009245765,-0.01749199,-0.02373913,0.05126953,-0.9765625,-0.2280273,0,0,0,0,0,0
4.800015,0,0,0,0,0,0,0,0,0,0,0,0,0,0,0,1,0,0,0,0,0,0.04980469,-0.9639893,-0.2230225,0,0,0,0,0,0
4.810015,0,0,0,0,0,0,0,0,0,0,0,0,0,0,0,1,0,0,0,0,0,0.05383301,-0.9782715,-0.220459,0,0,0,0,0,0
4.820015,0,0,0,0,0,0,0,0,0,0,0,0,0,0,0,1,0,0,0,0,0,0.08898926,-1.002319,-0.2177734,0,0,0,0,0,0
4.830016,0,0,0,0,0,0,0,0,0,0,0,0,0,0,0,1,0,0,0,0,0,0.06311035,-1.010132,-0.1453857,0,0,0,0,0,0
4.840016,0,0,0,0,0,0,0,0,0,0,0,0,0,0,0,1,0,0,0,0,0,0.0670166,-1.000366,-0.2113037,0,0,0,0,0,0
4.850016,0,0,0,0,0,0,0,0,0,0,0,0,0,0,0,1,0,0,0,0,0,0.05102539,-0.958252,-0.2467041,0,0,0,0,0,0
4.860016,0,0,0,0,0,0,0,0,0,0,0,0,0,0,0,0,0,0,0.02468486,0.009458682,0.02468486,0.03564453,-0.9238281,-0.2342529,0,0,0,0,0,0
4.870017,0,0,0,0,0,0,0,0,0,0,0,0,0,0,0,0,0,0,0,0,0,0.01879883,-0.9261475,-0.2182617,0,0,0,0,0,0
4.880017,0,0,0,0,0,0,0,0,0,0,0,0,0,0,0,0,0,0,0,0,0,0.0004882813,-0.9628906,-0.1976318,0,0,0,0,0,0
4.890017,0,0,0,0,0,0,0,0,0,0,0,0,0,0,0,0,0,0,0.02373913,-0.01449336,-0.01849153,-0.01135254,-0.9885254,-0.157959,0,0,0,0,0,0
4.900017,0,0,0,0,0,0,0,0,0,0,0,0,0,0,0,0,0,0,0,0,0,-0.01293945,-0.9919434,-0.1481934,0,0,0,0,0,0
4.910017,0,0,0,0,0,0,0,0,0,0,0,0,0,0,0,0,0,0,0,0,0,-0.008911133,-1.02417,-0.1260986,0,0,0,0,0,0
4.920018,0,0,0,0,0,0,0,0,0,0,0,0,0,0,0,0,0,0,0,0,0,0.001708984,-1.063843,-0.135498,0,0,0,0,0,0
4.930018,0,0,0,0,0,0,0,0,0,0,0,0,0,0,0,0,0,0,0,0,0,-0.006103516,-1.083862,-0.1313477,0,0,0,0,0,0
4.940018,0,0,0,0,0,0,0,0,0,0,0,0,0,0,0,0,0,0,0,0,0,0.00402832,-1.067505,-0.1254883,0,0,0,0,0,0
4.950018,0,0,0,0,0,0,0,0,0,0,0,0,0,0,0,1,0,0,-0.05647413,-0.01224439,-0.02623798,0.0135498,-1.051025,-0.1203613,0,0,0,0,0,0
4.960019,0,0,0,0,0,0,0,0,0,0,0,0,0,0,0,1,0,0,0,0,0,0.01062012,-1.035278,-0.1123047,0,0,0,0,0,0
4.970019,0,0,0,0,0,0,0,0,0,0,0,0,0,0,0,1,0,0,0,0,0,0.03442383,-1.014648,-0.1663818,0,0,0,0,0,0
4.980019,0,0,0,0,0,0,0,0,0,0,0,0,0,0,0,1,0,0,-0.08419049,-0.006458449,-0.03575213,0.05053711,-0.9619141,-0.1888428,0,0,0,0,0,0
4.990019,0,0,0.006092445,0.01015407,0,0,0,0,0,0,0,0,0,0,0,1,0,0,0,0,0,0.04919434,-0.9691162,-0.2402344,0,0,0,0,0,0
5.00002,0,0,0.02664253,0.04582515,0,0,0,0,0,0,0,0,0,0,0,1,0,0,0,0,0,0.05297852,-0.9573975,-0.2366943,0,0,0,0,0,0
5.01002,0,0,0.04391453,0.07420043,0,0,0,0,0,0,0,0,0,0,0,1,0,0,-0.03299004,-0.01776387,-0.01499547,0.05480957,-0.9445801,-0.2399902,0,0,0,0,0,0
5.02002,0,0,0.04867337,0.07693534,0,0,0,0,0,0,0,0,0,0,0,1,0,0,0,0,0,0.05322266,-0.9414063,-0.2346191,0,0,0,0,0,0
5.03002,0,0,0.0536726,0.07969568,0,0,0,0,0,0,0,0,0,0,0,1,0,0,0,0,0,0.06030273,-0.9476318,-0.2385254,0,0,0,0,0,0
5.04002,0,0,0.06436193,0.08523607,0,0,0,0,0,0,0,0,0,0,0,1,0,0,0.02324125,0.005747836,0.0337373,0.04418945,-0.9425049,-0.1932373,0,0,0,0,0,0
5.050021,0,0,0.06436193,0.08523607,0,0,0,0,0,0,0,0,0,0,0,1,0,0,0,0,0,0.05505371,-0.9658203,-0.2127686,0,0,0,0,0,0
5.060021,0,0,0.06724153,0.08103468,0,0,0,0,0,0,0,0,0,0,0,1,0,0,0,0,0,0.08557129,-0.980957,-0.2368164,0,0,0,0,0,0
5.070021,0,0,0.04859392,0.04360994,0,0,0,0,0,0,0,0,0,0,0,1,0,0,0.07071761,0.01974096,0.06472036,0.09130859,-1.004517,-0.2277832,0,0,0,0,0,0
5.080021,0,0,0.03136389,0.02010506,0,0,0,0,0,0,0,0,0,0,0,1,0,0,0,0,0,0.08239746,-1.004639,-0.2297363,0,0,0,0,0,0
5.090022,0,0,0.01008673,0.002844975,0,0,0,0,0,0,0,0,0,0,0,0,0,0,0,0,0,0.03857422,-1.020996,-0.1759033,0,0,0,0,0,0
5.100022,0,0,0.007979404,0.001841401,0,0,0,0,0,0,0,0,0,0,0,0,0,0,0.03698306,0.001999084,0.002998627,0.01367188,-1.023682,-0.159668,0,0,0,0,0,0
5.110022,0,0,0.007979404,0.001841401,0,0,0,0,0,0,0,0,0,0,0,0,0,0,0,0,0,0.01745605,-1.039429,-0.1772461,0,0,0,0,0,0
5.120022,0,0,0.007979404,0.001841401,0,0,0,0,0,0,0,0,0,0,0,0,0,0,-0.002306589,-0.0117636,-0.02814038,-0.001831055,-1.014771,-0.1800537,0,0,0,0,0,0
5.130023,0,0,0,0,0,0,0,0,0,0,0,0,0,0,0,0,0,0,0,0,0,-0.01245117,-1.02002,-0.1363525,0,0,0,0,0,0
5.140023,0,0,0,0,0,0,0,0,0,0,0,0,0,0,0,0,0,0,0,0,0,-0.00402832,-1.030273,-0.1303711,0,0,0,0,0,0
5.150023,0,0,0,0,0,0,0,0,0,0,0,0,0,0,0,0,0,0,0,0,0,-0.01245117,-1.019531,-0.1873779,0,0,0,0,0,0
5.160023,0,0,0,0,0,0,0,0,0,0,0,0,0,0,0,0,0,0,0,0,0,-0.002685547,-1.029053,-0.1623535,0,0,0,0,0,0
5.170023,0,0,0,0,0,0,0,0,0,0,0,0,0,0,0,1,0,0,-0.06447047,-0.02448878,-0.03123569,-0.007568359,-0.994751,-0.1252441,0,0,0,0,0,0
5.180024,0,0,0,0,0,0,0,0,0,0,0,0,0,0,0,1,0,0,0,0,0,0.01147461,-1.067505,-0.09680176,0,0,0,0,0,0
5.190024,0,0,0.01643713,0.03209154,0,0,0,0,0,0,0,0,0,0,0,1,0,0,0,0,0,-0.07263184,-0.8979492,-0.2076416,0,0,0,0,0,0
5.200024,0,0,0.03944235,0.1145706,0,0,0,0,0,0,0,0,0,0,0,1,0,0,-0.07321647,-0.03098581,-0.03998169,0.08679199,-1.013428,-0.3345947,0,0,0,0,0,0
5.210024,0,0,0.04809885,0.1672008,0,0,0,0,0,0,0,0,0,0,0,1,0,0,0,0,0,0.03295898,-1.006104,-0.2568359,0,0,0,0,0,0
5.220025,0,0,0.05455982,0.2208373,0,0,0,0,0,0,0,0,0,0,0,1,0,0,0,0,0,0.08789063,-1.009033,-0.2550049,0,0,0,0,0,0
5.230025,0,0,0.05801625,0.2569291,0,0,0,0,0,0,0,0,0,0,0,1,0,0,-0.03045235,-0.03991103,-0.00553679,0.06835938,-0.9785156,-0.223877,0,0,0,0,0,0
5.240025,0,0,0.05879604,0.2659821,0,0,0,0,0,0,0,0,0,0,0,1,0,0,0,0,0,0.08557129,-0.9984131,-0.2351074,0,0,0,0,0,0
5.250025,0,0,0.05954589,0.2750453,0,0,0,0,0,0,0,0,0,0,0,1,0,0,0,0,0,0.08251953,-1.00354,-0.2335205,0,0,0,0,0,0
5.260026,0,0,0.05954589,0.2750453,0,0,0,0,0,0,0,0,0,0,0,1,0,0,0,0,0,0.07946777,-1.007813,-0.1983643,0,0,0,0,0,0
5.270026,0,0,0.05954589,0.2750453,0,0,0,0,0,0,0,0,0,0,0,1,0,0,0,0,0,0.09326172,-1.001221,-0.2183838,0,0,0,0,0,0
5.280026,0,0,0.05547866,0.2298402,0,0,0,0,0,0,0,0,0,0,0,1,0,0,0,0,0,0.08972168,-0.9906006,-0.2091064,0,0,0,0,0,0
5.290026,0,0,0.04263338,0.1319605,0,0,0,0,0,0,0,0,0,0,0,1,0,0,0.03422875,0.04896959,0.06470982,0.08288574,-0.9365234,-0.2491455,0,0,0,0,0,0
5.300026,0,0,0.02969467,0.07211562,0,0,0,0,0,0,0,0,0,0,0,1,0,0,0,0,0,0.0802002,-0.9335938,-0.2972412,0,0,0,0,0,0
5.310027,0,0,0,0,0,0,0,0,0,0,0,0,0,0,0,1,0,0,0,0,0,0.03259277,-0.9185791,-0.2642822,0,0,0,0,0,0
5.320027,0,0,0,0,0,0,0,0,0,0,0,0,0,0,0,0,0,0,0,0,0,0.01757813,-0.9044189,-0.2479248,0,0,0,0,0,0
5.330027,0,0,0,0,0,0,0,0,0,0,0,0,0,0,0,0,0,0,0,0,0,0.01171875,-0.9312744,-0.2327881,0,0,0,0,0,0
5.340027,0,0,0,0,0,0,0,0,0,0,0,0,0,0,0,0,0,0,0,0,0,-0.01013184,-0.9451904,-0.2098389,0,0,0,0,0,0
5.350028,0,0,0,0,0,0,0,0,0,0,0,0,0,0,0,0,0,0,0,0,0,-0.004760742,-0.9694824,-0.178833,0,0,0,0,0,0
5.360028,0,0,0,0,0,0,0,0,0,0,0,0,0,0,0,0,0,0,0.03923203,-0.04647871,0.008745994,0.001586914,-0.9951172,-0.1844482,0,0,0,0,0,0
5.370028,0,0,0,0,0,0,0,0,0,0,0,0,0,0,0,0,0,0,0,0,0,-0.0009765625,-1.018188,-0.1744385,0,0,0,0,0,0
5.380028,0,0,0,0,0,0,0,0,0,0,0,0,0,0,0,0,0,0,0,0,0,0.004882813,-1.077515,-0.1546631,0,0,0,0,0,0
5.390028,0,0,0,0,0,0,0,0,0,0,0,0,0,0,0,0,0,0,0.01568481,-0.06273922,0.02883236,0.007446289,-1.112183,-0.1308594,0,0,0,0,0,0
5.400029,0,0,0,0,0,0,0,0,0,0,0,0,0,0,0,0,0,0,0,0,0,0.009765625,-1.125122,-0.1160889,0,0,0,0,0,0
5.410029,0,0,0,0,0,0,0,0,0,0,0,0,0,0,0,1,0,0,0,0,0,0.004272461,-1.098999,-0.1307373,0,0,0,0,0,0
5.420029,0,0,0,0,0,0,0,0,0,0,0,0,0,0,0,1,0,0,-0.06781969,-0.0532869,0.03644732,0.005004883,-1.070923,-0.1342773,0,0,0,0,0,0
5.430029,0,0,0,0,0,0,0,0,0,0,0,0,0,0,0,1,0,0,0,0,0,0.01171875,-1.036987,-0.1590576,0,0,0,0,0,0
5.44003,0,0,0,0,0,0,0,0,0,0,0,0,0,0,0,1,0,0,0,0,0,0.009765625,-0.9880371,-0.1993408,0,0,0,0,0,0
5.45003,0,0,0,0,0,0,0,0,0,0,0,0,0,0,0,1,0,0,-0.1017034,-0.05647413,0.02198993,0.00793457,-0.956543,-0.2191162,0,0,0,0,0,0
5.46003,0,0,0,0,0,0,0,0,0,0,0,0,0,0,0,1,0,0,0,0,0,0.01025391,-0.9266357,-0.2270508,0,0,0,0,0,0
5.47003,0,0,0,0,0,0,0,0,0,0,0,0,0,0,0,1,0,0,0,0,0,0.005371094,-0.894043,-0.2138672,0,0,0,0,0,0
5.480031,0,0,0,0,0,0,0,0,0,0,0,0,0,0,0,1,0,0,0,0,0,0.01477051,-0.8842773,-0.2247314,0,0,0,0,0,0
5.490031,0,0,0,0,0,0,0,0,0,0,0,0,0,0,0,1,0,0,0.02024073,-0.02099039,0.05347551,0.0246582,-0.8894043,-0.2236328,0,0,0,0,0,0
5.500031,0,0,0,0,0,0,0,0,0,0,0,0,0,0,0,1,0,0,0,0,0,0.03527832,-0.8977051,-0.2242432,0,0,0,0,0,0
5.510031,0,0,0,0,0,0,0,0,0,0,0,0,0,0,0,0,0,0,0,0,0,0.0213623,-0.9265137,-0.215332,0,0,0,0,0,0
5.520031,0,0,0,0,0,0,0,0,0,0,0,0,0,0,0,0,0,0,0.06897403,-0.008746706,0.04573278,0.0001220703,-0.9321289,-0.2199707,0,0,0,0,0,0
5.530032,0,0,0,0,0,0,0,0,0,0,0,0,0,0,0,0,0,0,0,0,0,0.004882813,-0.9489746,-0.2121582,0,0,0,0,0,0
5.540032,0,0,0,0,0,0,0,0,0,0,0,0,0,0,0,0,0,0,0,0,0,-0.01464844,-0.9868164,-0.1966553,0,0,0,0,0,0
5.550032,0,0,0,0,0,0,0,0,0,0,0,0,0,0,0,0,0,0,0,0,0,-0.0345459,-1.026855,-0.175293,0,0,0,0,0,0
5.560032,0,0,0,0,0,0,0,0,0,0,0,0,0,0,0,0,0,0,0,0,0,-0.0324707,-1,-0.1790771,0,0,0,0,0,0
5.570033,0,0,0,0,0,0,0,0,0,0,0,0,0,0,0,0,0,0,0,0,0,-0.02270508,-1.034546,-0.1497803,0,0,0,0,0,0
5.580033,0,0,0,0,0,0,0,0,0,0,0,0,0,0,0,0,0,0,0.04290634,-0.03414053,-0.01430211,-0.02111816,-1.047485,-0.2000732,0,0,0,0,0,0
5.590033,0,0,0,0,0,0,0,0,0,0,0,0,0,0,0,0,0,0,0,0,0,-0.01977539,-1.06897,-0.1949463,0,0,0,0,0,0
5.600033,0,0,0,0,0,0,0,0,0,0,0,0,0,0,0,0,0,0,0,0,0,-0.0234375,-1.074707,-0.1844482,0,0,0,0,0,0
5.610034,0,0,0,0,0,0,0,0,0,0,0,0,0,0,0,0,0,0,0.00449794,-0.0467286,-0.01749199,-0.02563477,-1.044189,-0.1848145,0,0,0,0,0,0
5.620034,0,0,0,0,0,0,0,0,0,0,0,0,0,0,0,0,0,0,0,0,0,-0.009643555,-0.9761963,-0.1962891,0,0,0,0,0,0
5.630034,0,0,0,0,0,0,0,0,0,0,0,0,0,0,0,0,0,0,0.02748965,-0.04623259,0.02224163,0.008056641,-0.9613037,-0.2199707,0,0,0,0,0,0
5.640034,0,0,0,0,0,0,0,0,0,0,0,0,0,0,0,0,0,0,0,0,0,0.01196289,-0.9624023,-0.2165527,0,0,0,0,0,0
5.650034,0,0,0,0,0,0,0,0,0,0,0,0,0,0,0,0,0,0,0,0,0,0.01293945,-0.987793,-0.2218018,0,0,0,0,0,0
5.660035,0,0,0,0,0,0,0,0,0,0,0,0,0,0,0,0,0,0,0.06022732,-0.042484,0.1087091,0.01867676,-1.000488,-0.2147217,0,0,0,0,0,0
5.670035,0,0,0,0,0,0,0,0,0,0,0,0,0,0,0,0,0,0,0,0,0,0.01489258,-0.9959717,-0.199707,0,0,0,0,0,0
5.680035,0,0,0,0,0,0,0,0,0,0,0,0,0,0,0,0,0,0,0,0,0,0.009033203,-0.9969482,-0.2003174,0,0,0,0,0,0
5.690035,0,0,0,0,0,0,0,0,0,0,0,0,0,0,0,0,0,0,0.04073134,-0.03198535,0.1694224,-0.01074219,-1.027344,-0.1674805,0,0,0,0,0,0
5.700036,0,0,0,0,0,0,0,0,0,0,0,0,0,0,0,0,0,0,0,0,0,-0.02893066,-1.036621,-0.1600342,0,0,0,0,0,0
5.710036,0,0,0,0,0,0,0,0,0,0,0,0,0,0,0,0,0,0,0,0,0,-0.03198242,-1.042603,-0.1539307,0,0,0,0,0,0
5.720036,0,0,0,0,0,0,0,0,0,0,0,0,0,0,0,0,0,0,0.02149016,-0.02273958,0.1951606,-0.03759766,-1.052612,-0.135376,0,0,0,0,0,0
5.730036,0,0,0,0,0,0,0,0,0,0,0,0,0,0,0,0,0,0,0,0,0,-0.05041504,-1.070068,-0.1384277,0,0,0,0,0,0
5.740036,0,0,0,0,0,0,0,0,0,0,0,0,0,0,0,0,0,0,0,0,0,-0.06115723,-1.067261,-0.1483154,0,0,0,0,0,0
5.750037,0,0,0,0,0,0,0,0,0,0,0,0,0,0,0,0,0,0,0.004844264,-0.02629743,0.1843127,-0.07666016,-1.056763,-0.1546631,0,0,0,0,0,0
5.760037,0,0,0,0,0,0,0,0,0,0,0,0,0,0,0,0,0,0,0,0,0,-0.08557129,-1.048218,-0.1466064,0,0,0,0,0,0
5.770037,0,0,0,0,0,0,0,0,0,0,0,0,0,0,0,0,0,0,-0.01824165,-0.03548375,0.205156,-0.09143066,-1.019165,-0.1538086,0,0,0,0,0,0
5.780037,0,0,0,0,0,0,0,0,0,0,0,0,0,0,0,0,0,0,0,0,0,-0.09753418,-1.006104,-0.1563721,0,0,0,0,0,0
5.790038,0,0,0,0,0,0,0,0,0,0,0,0,0,0,0,0,0,0,0,0,0,-0.1202393,-0.9858398,-0.1578369,0,0,0,0,0,0
5.800038,0,0,0,0,0,0,0,0,0,0,0,0,0,0,0,0,0,0,-0.04697848,-0.03723295,0.1726709,-0.1234131,-0.9422607,-0.1699219,0,0,0,0,0,0
5.810038,0,0,0,0,0,0,0,0,0,0,0,0,0,0,0,0,0,0,0,0,0,-0.140625,-0.9084473,-0.1789551,0,0,0,0,0,0
5.820038,0,0,0,0,0,0,0,0,0,0,0,0,0,0,0,0,0,0,0,0,0,-0.1621094,-0.8962402,-0.1791992,0,0,0,0,0,0
5.830039,0,0,0,0,0,0,0,0,0,0,0,0,0,0,0,0,0,0,-0.02973638,-0.0484778,0.1034526,-0.1652832,-0.9052734,-0.1783447,0,0,0,0,0,0
5.840039,0,0,0,0,0,0,0,0,0,0,0,0,0,0,0,0,0,0,0,0,0,-0.1654053,-0.9086914,-0.1723633,0,0,0,0,0,0
5.850039,0,0,0,0,0,0,0,0,0,0,0,0,0,0,0,0,0,0,0,0,0,-0.1795654,-0.8991699,-0.166748,0,0,0,0,0,0
5.860039,0,0,0,0,0,0,0,0,0,0,0,0,0,0,0,0,0,0,0,0,0,-0.1928711,-0.8927002,-0.1700439,0,0,0,0,0,0
5.870039,0,0,0,0,0,0,0,0,0,0,0,0,0,0,0,0,0,0,0,0,0,-0.1931152,-0.887085,-0.1794434,0,0,0,0,0,0
5.88004,0,0,0,0,0,0,0,0,0,0,0,0,0,0,0,0,0,0,0,0,0,-0.2001953,-0.8725586,-0.1729736,0,0,0,0,0,0
5.89004,0,0,0,0,0,0,0,0,0,0,0,0,0,0,0,0,0,0,0.01061031,-0.03275356,-0.07265756,-0.1777344,-0.9111328,-0.1828613,0,0,0,0,0,0
5.90004,0,0,0,0,0,0,0,0,0,0,0,0,0,0,0,0,0,0,0,0,0,-0.1746826,-0.9107666,-0.1816406,0,0,0,0,0,0
5.91004,0,0,0,0,0,0,0,0,0,0,0,0,0,0,0,0,0,0,0,0,0,-0.1715088,-0.9611816,-0.1634521,0,0,0,0,0,0
5.920041,0,0,0,0,0,0,0,0,0,0,0,0,0,0,0,0,0,0,0.03498398,-0.01649245,-0.0882096,-0.1671143,-1.002319,-0.1456299,0,0,0,0,0,0
5.930041,0,0,0,0,0,0,0,0,0,0,0,0,0,0,0,0,0,0,0,0,0,-0.1616211,-1.02478,-0.1383057,0,0,0,0,0,0
5.940041,0,0,0,0,0,0,0,0,0,0,0,0,0,0,0,0,0,0,0,0,0,-0.166748,-1.055664,-0.1258545,0,0,0,0,0,0
5.950041,0,0,0,0,0,0,0,0,0,0,0,0,0,0,0,0,0,0,0,0,0,-0.1569824,-1.063843,-0.1318359,0,0,0,0,0,0
5.960042,0,0,0,0,0,0,0,0,0,0,0,0,0,0,0,0,0,0,0,0,0,-0.1634521,-1.060791,-0.1445313,0,0,0,0,0,0
5.970042,0,0,0,0,0,0,0,0,0,0,0,0,0,0,0,0,0,0,0,0,0,-0.1658936,-1.07373,-0.1494141,0,0,0,0,0,0
5.980042,0,0,0,0,0,0,0,0,0,0,0,0,0,0,0,0,0,0,0,0,0,-0.1612549,-1.065796,-0.1414795,0,0,0,0,0,0
5.990042,0,0,0,0,0,0,0,0,0,0,0,0,0,0,0,0,0,0,0,0,0,-0.1447754,-1.058716,-0.1530762,0,0,0,0,0,0
6.000042,0,0,0,0,0,0,0,0,0,0,0,0,0,0,0,0,0,0,0,0,0,-0.1621094,-1.029541,-0.175293,0,0,0,0,0,0
6.010043,0,0,0,0,0,0,0,0,0,0,0,0,0,0,0,0,0,0,0,0,0,-0.1766357,-1.015503,-0.1904297,0,0,0,0,0,0
6.020043,0,0,0,0,0,0,0,0,0,0,0,0,0,0,0,0,0,0,0,0,0,-0.1768799,-1.010498,-0.1968994,0,0,0,0,0,0
6.030043,0,0,0,0,0,0,0,0,0,0,0,0,0,0,0,0,0,0,0,0,0,-0.1884766,-0.9981689,-0.1962891,0,0,0,0,0,0
6.040043,0,0,0,0,0,0,0,0,0,0,0,0,0,0,0,0,0,0,0,0,0,-0.1889648,-1.000854,-0.1887207,0,0,0,0,0,0
6.050044,0,0,0,0,0,0,0,0,0,0,0,0,0,0,0,0,0,0,0,0,0,-0.1712646,-1.010742,-0.1796875,0,0,0,0,0,0
6.060044,0,0,0,0,0,0,0,0,0,0,0,0,0,0,0,0,0,0,-0.008246223,0.03448421,-0.07321647,-0.1629639,-1.02832,-0.180542,0,0,0,0,0,0
6.070044,0,0,0,0,0,0,0,0,0,0,0,0,0,0,0,0,0,0,0,0,0,-0.1551514,-1.018311,-0.1921387,0,0,0,0,0,0
6.080044,0,0,0,0,0,0,0,0,0,0,0,0,0,0,0,0,0,0,0,0,0,-0.1472168,-1.011841,-0.2092285,0,0,0,0,0,0
6.090044,0,0,0,0,0,0,0,0,0,0,0,0,0,0,0,0,0,0,-0.04397986,0.02523844,-0.0692183,-0.1502686,-1.019043,-0.2133789,0,0,0,0,0,0
6.100045,0,0,0,0,0,0,0,0,0,0,0,0,0,0,0,0,0,0,0,0,0,-0.1635742,-1.013916,-0.227417,0,0,0,0,0,0
6.110045,0,0,0,0,0,0,0,0,0,0,0,0,0,0,0,0,0,0,-0.06796888,0.0259881,-0.07146727,-0.1534424,-0.9923096,-0.2579346,0,0,0,0,0,0
6.120045,0,0,0,0,0,0,0,0,0,0,0,0,0,0,0,0,0,0,0,0,0,-0.1092529,-0.9643555,-0.2362061,0,0,0,0,0,0
6.130045,0,0,0,0,0,0,0,0,0,0,0,0,0,0,0,0,0,0,-0.1012037,0.02124027,-0.1072009,-0.1391602,-0.942627,-0.2313232,0,0,0,0,0,0
6.140046,0,0,0,0,0,0,0,0,0,0,0,0,0,0,0,0,0,0,0,0,0,-0.1072998,-0.9249268,-0.2462158,0,0,0,0,0,0
6.150046,0,0,0,0,0,0,0,0,0,0,0,0,0,0,0,0,0,0,0,0,0,-0.1040039,-0.921875,-0.2452393,0,0,0,0,0,0
6.160046,0,0,0,0,0,0,0,0,0,0,0,0,0,0,0,0,0,0,-0.1279518,0.02024238,-0.1584404,-0.09924316,-0.9372559,-0.2432861,0,0,0,0,0,0
6.170046,0,0,0,0,0,0,0,0,0,0,0,0,0,0,0,0,0,0,0,0,0,-0.09545898,-0.9470215,-0.2431641,0,0,0,0,0,0
6.180047,0,0,0,0,0,0,0,0,0,0,0,0,0,0,0,0,0,0,0,0,0,-0.0904541,-0.9196777,-0.2471924,0,0,0,0,0,0
6.190047,0,0,0,0,0,0,0,0,0,0,0,0,0,0,0,0,0,0,-0.1839307,-0.003498683,-0.1936771,-0.08642578,-0.8983154,-0.2510986,0,0,0,0,0,0
6.200047,0,0,0,0,0,0,0,0,0,0,0,0,0,0,0,0,0,0,0,0,0,-0.08312988,-0.8920898,-0.2337646,0,0,0,0,0,0
6.210047,0,0,0,0,0,0,0,0,0,0,0,0,0,0,0,0,0,0,0,0,0,-0.07324219,-0.9223633,-0.21521,0,0,0,0,0,0
6.220047,0,0,0,0,0,0,0,0,0,0,0,0,0,0,0,0,0,0,0,0,0,-0.05883789,-0.9533691,-0.2104492,0,0,0,0,0,0
6.230048,0,0,0,0,0,0,0,0,0,0,0,0,0,0,0,0,0,0,0,0,0,-0.04821777,-0.9903564,-0.2016602,0,0,0,0,0,0
6.240048,0,0,0,0,0,0,0,0,0,0,0,0,0,0,0,0,0,0,0,0,0,-0.03967285,-0.99646,-0.1956787,0,0,0,0,0,0
6.250048,0,0,0,0,0,0,0,0,0,0,0,0,0,0,0,0,0,0,0,0,0,-0.03405762,-0.9819336,-0.1922607,0,0,0,0,0,0
6.260048,0,0,0,0,0,0,0,0,0,0,0,0,0,0,0,0,0,0,0,0,0,-0.03320313,-0.9155273,-0.2001953,0,0,0,0,0,0
6.270049,0,0,0,0,0,0,0,0,0,0,0,0,0,0,0,0,0,0,0,0,0,-0.01806641,-0.8475342,-0.2144775,0,0,0,0,0,0
6.280049,0,0,0,0,0,0,0,0,0,0,0,0,0,0,0,0,0,0,0,0,0,-0.008056641,-0.7996826,-0.2159424,0,0,0,0,0,0
6.290049,0,0,0,0,0,0,0,0,0,0,0,0,0,0,0,0,0,0,0,0,0,0.002685547,-0.6635742,-0.2231445,0,0,0,0,0,0
6.300049,0,0,0,0,0,0,0,0,0,0,0,0,0,0,0,0,0,0,0,0,0,0.006713867,-0.598877,-0.2305908,0,0,0,0,0,0
6.31005,0,0,0,0,0,0,0,0,0,0,0,0,0,0,0,0,0,0,0,0,0,-0.004760742,-0.6452637,-0.2186279,0,0,0,0,0,0
6.32005,0,0,0,0,0,0,0,0,0,0,0,0,0,0,0,0,0,0,0,0,0,-0.04406738,-0.7581787,-0.1782227,0,0,0,0,0,0
6.33005,0,0,0,0,0,0,0,0,0,0,0,0,0,0,0,0,0,0,0,0,0,-0.05969238,-0.8500977,-0.1756592,0,0,0,0,0,0
6.34005,0,0,0,0,0,0,0,0,0,0,0,0,0,0,0,0,0,0,0,0,0,-0.07177734,-0.9075928,-0.1730957,0,0,0,0,0,0
6.35005,0,0,0,0,0,0,0,0,0,0,0,0,0,0,0,0,0,0,0,0,0,-0.04663086,-0.946167,-0.1710205,0,0,0,0,0,0
6.360051,0,0,0,0,0,0,0,0,0,0,0,0,0,0,0,0,0,0,0,0,0,-0.02392578,-0.9157715,-0.1939697,0,0,0,0,0,0
6.370051,0,0,0,0,0,0,0,0,0,0,0,0,0,0,0,0,0,0,0,0,0,-0.03027344,-0.8800049,-0.1988525,0,0,0,0,0,0
6.380051,0,0,0,0,0,0,0,0,0,0,0,0,0,0,0,0,0,0,0,0,0,-0.03381348,-0.8497314,-0.227417,0,0,0,0,0,0
6.390051,0,0,0,0,0,0,0,0,0,0,0,0,0,0,0,0,0,0,0.09088762,-0.05743913,-0.2405984,-0.04150391,-0.8483887,-0.2258301,0,0,0,0,0,0
6.400052,0,0,0,0,0,0,0,0,0,0,0,0,0,0,0,0,0,0,0,0,0,-0.0546875,-0.8837891,-0.2119141,0,0,0,0,0,0
6.410052,0,0,0,0,0,0,0,0,0,0,0,0,0,0,0,0,0,0,0,0,0,-0.05786133,-0.9902344,-0.1571045,0,0,0,0,0,0
6.420052,0,0,0,0,0,0,0,0,0,0,0,0,0,0,0,0,0,0,0.205156,-0.01474325,-0.2156512,-0.03015137,-1.089722,-0.137207,0,0,0,0,0,0
6.430052,0,0,0,0,0,0,0,0,0,0,0,0,0,0,0,0,0,0,0,0,0,-0.005615234,-1.140015,-0.1374512,0,0,0,0,0,0
6.440053,0,0,0,0,0,0,0,0,0,0,0,0,0,0,0,0,0,0,0,0,0,0.02905273,-1.19458,-0.1699219,0,0,0,0,0,0
6.450053,0,0,0,0,0,0,0,0,0,0,0,0,0,0,0,0,0,0,0.2688988,0.03848551,-0.0379857,0.04663086,-1.224854,-0.2098389,0,0,0,0,0,0
6.460053,0,0,0,0,0,0,0,0,0,0,0,0,0,0,0,0,0,0,0,0,0,0.06152344,-1.226318,-0.2202148,0,0,0,0,0,0
6.470053,0,0,0,0,0,0,0,0,0,0,0,0,0,0,0,0,0,0,0,0,0,0.08068848,-1.254517,-0.2149658,0,0,0,0,0,0
6.480053,0,0,0,0,0,0,0,0,0,0,0,0,0,0,0,0,0,0,0.2386407,0.04223066,0.04073134,0.05969238,-1.342651,-0.1798096,0,0,0,0,0,0
6.490054,0,0,0,0,0,0,0,0,0,0,0,0,0,0,0,0,0,0,0,0,0,0.03881836,-1.41394,-0.1530762,0,0,0,0,0,0
6.500054,0,0,0,0,0,0,0,0,0,0,0,0,0,0,0,0,0,0,0,0,0,0.02062988,-1.486084,-0.1318359,0,0,0,0,0,0
6.510054,0,0,0,0,0,0,0,0,0,0,0,0,0,0,0,0,0,0,0.05497482,0.02998627,0.003498398,0.01635742,-1.531494,-0.1413574,0,0,0,0,0,0
6.520054,0,0,0,0,0,0,0,0,0,0,0,0,0,0,0,0,0,0,0,0,0,0.01940918,-1.526123,-0.1495361,0,0,0,0,0,0
6.530055,0,0,0,0,0,0,0,0,0,0,0,0,0,0,0,0,0,0,0,0,0,0.01330566,-1.412598,-0.1700439,0,0,0,0,0,0
6.540055,0,0,0,0,0,0,0,0,0,0,0,0,0,0,0,0,0,0,-0.1084097,0.03206158,0.003229225,0.01940918,-1.272705,-0.2109375,0,0,0,0,0,0
6.550055,0,0,0,0,0,0,0,0,0,0,0,0,0,0,0,0,0,0,0,0,0,0.03271484,-1.19043,-0.234375,0,0,0,0,0,0
6.560055,0,0,0,0,0,0,0,0,0,0,0,0,0,0,0,0,0,0,0,0,0,0.02563477,-1.088379,-0.2496338,0,0,0,0,0,0
6.570055,0,0,0,0,0,0,0,0,0,0,0,0,0,0,0,0,0,0,-0.1711855,0.02299134,0.001999247,0.01196289,-1.012085,-0.24646,0,0,0,0,0,0
6.580056,0,0,0,0,0,0,0,0,0,0,0,0,0,0,0,0,0,0,0,0,0,-0.001464844,-0.9609375,-0.2376709,0,0,0,0,0,0
6.590056,0,0,0,0,0,0,0,0,0,0,0,0,0,0,0,0,0,0,0,0,0,-0.02392578,-0.8933105,-0.2299805,0,0,0,0,0,0
6.600056,0,0,0,0,0,0,0,0,0,0,0,0,0,0,0,0,0,0,-0.1586515,0.00774519,-0.003497828,-0.03564453,-0.8618164,-0.2277832,0,0,0,0,0,0
6.610056,0,0,0,0,0,0,0,0,0,0,0,0,0,0,0,0,0,0,-0.1404836,0.00599766,-0.001614755,-0.03723145,-0.8522949,-0.2275391,0,0,0,0,0,0
6.620057,0,0,0,0,0,0,0,0,0,0,0,0,0,0,0,0,0,0,0,0,0,-0.0411377,-0.8310547,-0.2008057,0,0,0,0,0,0
6.630057,0,0,0,0,0,0,0,0,0,0,0,0,0,0,0,0,0,0,-0.09420685,0.003998169,0.002748741,-0.03039551,-0.8227539,-0.2069092,0,0,0,0,0,0
6.640057,0,0,0,0,0,0,0,0,0,0,0,0,0,0,0,0,0,0,0,0,0,-0.02844238,-0.8153076,-0.2139893,0,0,0,0,0,0
6.650057,0,0,0,0,0,0,0,0,0,0,0,0,0,0,0,0,0,0,0,0,0,-0.03405762,-0.8137207,-0.1633301,0,0,0,0,0,0
6.660058,0,0,0,0,0,0,0,0,0,0,0,0,0,0,0,0,0,0,-0.02348924,0.01524302,0.01824165,-0.005371094,-0.8280029,-0.1520996,0,0,0,0,0,0
6.670058,0,0,0,0,0,0,0,0,0,0,0,0,0,0,0,0,0,0,0,0,0,0.01611328,-0.8465576,-0.1873779,0,0,0,0,0,0
6.680058,0,0,0,0,0,0,0,0,0,0,0,0,0,0,0,0,0,0,0,0,0,0.0345459,-0.8525391,-0.2174072,0,0,0,0,0,0
6.690058,0,0,0,0,0,0,0,0,0,0,0,0,0,0,0,0,0,0,-0.005535814,0.01014899,0.001383953,0.02502441,-0.8452148,-0.2220459,0,0,0,0,0,0
6.700058,0,0,0,0,0,0,0,0,0,0,0,0,0,0,0,0,0,0,0,0,0,0.007202148,-0.8804932,-0.2098389,0,0,0,0,0,0
6.710059,0,0,0,0,0,0,0,0,0,0,0,0,0,0,0,0,0,0,0,0,0,0.006103516,-0.9127197,-0.2033691,0,0,0,0,0,0
6.720059,0,0,0,0,0,0,0,0,0,0,0,0,0,0,0,0,0,0,0.05189825,0.00622779,-0.002537248,0.0111084,-0.9536133,-0.178833,0,0,0,0,0,0
6.730059,0,0,0.05514725,0.05514725,0,0,0,0,0,0,0,0,0,0,0,0,0,0,0,0,0,0.0135498,-0.9683838,-0.175293,0,0,0,0,0,0
6.740059,0,0,0.1766723,0.1555771,0,0,0,0,0,0,0,0,0,0,0,0,0,0,0,0,0,0.03149414,-0.9931641,-0.2054443,0,0,0,0,0,0
6.75006,0,0,0.2974046,0.2654256,0,0,0,0,0,0,0,0,0,0,0,0,0,0,0.07671487,0.003998169,-0.008246223,0.0447998,-1.003296,-0.2296143,0,0,0,0,0,0
6.76006,0,0,0.3560309,0.3356863,0,0,0,0,0,0,0,0,0,0,0,1,0,0,0,0,0,0.05749512,-1.006714,-0.2440186,0,0,0,0,0,0
6.77006,0,0,0.4231831,0.4160708,0,0,0,0,0,0,0,0,0,0,0,1,0,0,0,0,0,0.04748535,-1.020752,-0.2332764,0,0,0,0,0,0
6.78006,0,0,0.4786433,0.4713357,0,0,0,0,0,0,0,0,0,0,0,1,0,0,0.09345719,-0.009495651,0.01999084,0.02966309,-1.039673,-0.215332,0,0,0,0,0,0
6.790061,0,0,0.4980538,0.4980538,0,0,0,0,0,0,0,0,0,0,0,1,0,0,0,0,0,0.01586914,-1.054932,-0.1971436,0,0,0,0,0,0
6.800061,0,0,0.5266173,0.5340871,0,0,0,0,0,0,0,0,0,0,0,1,0,0,0,0,0,0.01220703,-1.071411,-0.185791,0,0,0,0,0,0
6.810061,0,0,0.5274928,0.5424571,0,0,0,0,0,0,0,0,0,0,0,1,0,0,0.08396155,-0.002748741,0.04198077,0.02416992,-1.09021,-0.1933594,0,0,0,0,0,0
6.820061,0,0,0.5358323,0.5433264,0,0,0,0,0,0,0,0,0,0,0,1,0,0,0,0,0,0.02270508,-1.09082,-0.1929932,0,0,0,0,0,0
6.830061,0,0,0.5358323,0.5433264,0,0,0,0,0,0,0,0,0,0,0,1,0,0,0,0,0,0.01489258,-1.082764,-0.1783447,0,0,0,0,0,0
6.840062,0,0,0.5349627,0.5349627,0,0,0,0,0,0,0,0,0,0,0,1,0,0,0.04313702,-0.003921547,0.01637823,0.005615234,-1.091797,-0.1964111,0,0,0,0,0,0
6.850062,0,0,0.5349627,0.5349627,0,0,0,0,0,0,0,0,0,0,0,1,0,0,0.03460189,-0.007151056,0.009919208,0.009155273,-1.086426,-0.19104,0,0,0,0,0,0
6.860062,0,0,0.5340871,0.5266173,0,0,0,0,0,0,0,0,0,0,0,1,0,0,0,0,0,0.006835938,-1.078857,-0.1743164,0,0,0,0,0,0
6.870062,0,0,0.531425,0.5016949,0,0,0,0,0,0,0,0,0,0,0,1,0,0,0,0,0,0.01171875,-1.089722,-0.1646729,0,0,0,0,0,0
6.880063,0,0,0.5296225,0.4851787,0,0,0,0,0,0,0,0,0,0,0,1,0,0,0,0,0,0.01928711,-1.103638,-0.1647949,0,0,0,0,0,0
6.890063,0,0,0.5268811,0.4605604,0,0,0,0,0,0,0,0,0,0,0,1,0,0,0,0,0,0.02941895,-1.096313,-0.161377,0,0,0,0,0,0
6.900063,0,0,0.5231656,0.4280446,0,0,0,0,0,0,0,0,0,0,0,1,0,0,0.04547917,-0.002998627,0.02823707,0.02172852,-1.072266,-0.1630859,0,0,0,0,0,0
6.910063,0,0,0.5118595,0.4029531,0,0,0,0,0,0,0,0,0,0,0,1,0,0,0,0,0,0.01586914,-1.058716,-0.1644287,0,0,0,0,0,0
6.920063,0,0,0.4720514,0.3513767,0,0,0,0,0,0,0,0,0,0,0,1,0,0,0,0,0,0.006958008,-1.020508,-0.161499,0,0,0,0,0,0
6.930064,0,0,0.4307731,0.2929257,0,0,0,0,0,0,0,0,0,0,0,1,0,0,0.06272127,-0.02024073,0.02573821,-0.0009765625,-1.000366,-0.1469727,0,0,0,0,0,0
6.940064,0,0,0.3912255,0.2507856,0,0,0,0,0,0,0,0,0,0,0,0,0,0,0,0,0,-0.0078125,-0.9798584,-0.135498,0,0,0,0,0,0
6.950064,0,0,0.3122892,0.1762424,0,0,0,0,0,0,0,0,0,0,0,0,0,0,0,0,0,-0.01782227,-0.9731445,-0.1179199,0,0,0,0,0,0
6.960064,0,0,0.2461216,0.1329622,0,0,0,0,0,0,0,0,0,0,0,0,0,0,0,0,0,-0.02172852,-0.9691162,-0.1065674,0,0,0,0,0,0
6.970065,0,0,0.1425317,0.07236225,0,0,0,0,0,0,0,0,0,0,0,0,0,0,0,0,0,-0.01965332,-0.987793,-0.0802002,0,0,0,0,0,0
6.980065,0,0,0.04582515,0.02664253,0,0,0,0,0,0,0,0,0,0,0,0,0,0,0,0,0,-0.01159668,-0.9971924,-0.06481934,0,0,0,0,0,0
6.990065,0,0,0,0,0,0,0,0,0,0,0,0,0,0,0,0,0,0,0.03183374,-0.048904,0.002768151,-0.0291748,-1.022949,-0.05603027,0,0,0,0,0,0
7.000065,0,0,0,0,0,0,0,0,0,0,0,0,0,0,0,0,0,0,0,0,0,-0.02954102,-1.039429,0.0003662109,0,0,0,0,0,0
7.010066,0,0,0,0,0,0,0,0,0,0,0,0,0,0,0,0,0,0,0,0,0,-0.05053711,-1.072876,-0.01403809,0,0,0,0,0,0
7.020066,0,0,0,0,0,0,0,0,0,0,0,0,0,0,0,0,0,0,0,0,0,-0.05517578,-1.062622,-0.05456543,0,0,0,0,0,0
7.030066,0,0,0,0,0,0,0,0,0,0,0,0,0,0,0,0,0,0,0,0,0,-0.04956055,-1.069824,-0.05749512,0,0,0,0,0,0
7.040066,0,0,0,0,0,0,0,0,0,0,0,0,0,0,0,0,0,0,0,0,0,-0.04626465,-1.086304,-0.05053711,0,0,0,0,0,0
7.050066,0,0,0,0,0,0,0,0,0,0,0,0,0,0,0,0,0,0,0,0,0,-0.05187988,-1.098755,-0.05456543,0,0,0,0,0,0
7.060067,0,0,0,0,0,0,0,0,0,0,0,0,0,0,0,0,0,0,0,0,0,-0.06445313,-1.090454,-0.07275391,0,0,0,0,0,0
7.070067,0,0,0,0,0,0,0,0,0,0,0,0,0,0,0,0,0,0,0,0,0,-0.06433105,-1.085205,-0.07824707,0,0,0,0,0,0
7.080067,0,0,0,0,0,0,0,0,0,0,0,0,0,0,0,1,0,0,0,0,0,-0.07519531,-1.028809,-0.09997559,0,0,0,0,0,0
7.090067,0,0,0,0,0,0,0,0,0,0,0,0,0,0,0,1,0,0,0,0,0,-0.06787109,-0.9776611,-0.1279297,0,0,0,0,0,0
7.100068,0,0,0,0,0,0,0,0,0,0,0,0,0,0,0,1,0,0,0,0,0,-0.03137207,-0.9644775,-0.1575928,0,0,0,0,0,0
7.110068,0,0,0,0,0,0,0,0,0,0,0,0,0,0,0,1,0,0,-0.2228362,-0.0232986,-0.04429041,-0.02954102,-0.9250488,-0.1922607,0,0,0,0,0,0
7.120068,0,0,0,0,0,0,0,0,0,0,0,0,0,0,0,1,0,0,0,0,0,-0.03686523,-0.8745117,-0.1787109,0,0,0,0,0,0
7.130068,0,0,0,0,0,0,0,0,0,0,0,0,0,0,0,1,0,0,0,0,0,-0.02587891,-0.8120117,-0.2332764,0,0,0,0,0,0
7.140069,0,0,0,0,0,0,0,0,0,0,0,0,0,0,0,1,0,0,0,0,0,-0.02331543,-0.7919922,-0.2371826,0,0,0,0,0,0
7.150069,0,0,0,0,0,0,0,0,0,0,0,0,0,0,0,1,0,0,0,0,0,-0.03588867,-0.8170166,-0.2218018,0,0,0,0,0,0
7.160069,0,0,0,0,0,0,0,0,0,0,0,0,0,0,0,1,0,0,0,0,0,-0.03344727,-0.8044434,-0.2331543,0,0,0,0,0,0
7.170069,0,0,0,0,0,0,0,0,0,0,0,0,0,0,0,1,0,0,0,0,0,-0.03723145,-0.84021,-0.2144775,0,0,0,0,0,0
7.180069,0,0,0,0,0,0,0,0,0,0,0,0,0,0,0,1,0,0,-0.0294865,-0.00224897,0.03148558,-0.04309082,-0.8349609,-0.2513428,0,0,0,0,0,0
7.19007,0,0,0,0,0,0,0,0,0,0,0,0,0,0,0,1,0,0,0,0,0,-0.04577637,-0.8585205,-0.2443848,0,0,0,0,0,0
7.20007,0,0,0,0,0,0,0,0,0,0,0,0,0,0,0,1,0,0,-0.008073061,-0.01037965,0.03667476,-0.01953125,-0.8540039,-0.2642822,0,0,0,0,0,0
7.21007,0,0,0,0,0,0,0,0,0,0,0,0,0,0,0,1,0,0,0,0,0,-0.003051758,-0.8614502,-0.2674561,0,0,0,0,0,0
7.22007,0,0,0,0,0,0,0,0,0,0,0,0,0,0,0,1,0,0,0,0,0,-0.01049805,-0.9030762,-0.2711182,0,0,0,0,0,0
7.230071,0,0,0,0,0,0,0,0,0,0,0,0,0,0,0,0,0,0,0.02352928,-0.02006909,0.07035717,-0.03234863,-0.9602051,-0.272583,0,0,0,0,0,0
7.240071,0,0,0,0,0,0,0,0,0,0,0,0,0,0,0,0,0,0,0,0,0,-0.03918457,-0.9761963,-0.2735596,0,0,0,0,0,0
7.250071,0,0,0,0,0,0,0,0,0,0,0,0,0,0,0,0,0,0,0,0,0,-0.03747559,-0.9523926,-0.2806396,0,0,0,0,0,0
7.260071,0,0,0,0,0,0,0,0,0,0,0,0,0,0,0,0,0,0,0,0,0,-0.02661133,-1.032715,-0.31604,0,0,0,0,0,0
7.270072,0,0,0,0,0,0,0,0,0,0,0,0,0,0,0,0,0,0,0,0,0,-0.02490234,-1.018433,-0.3244629,0,0,0,0,0,0
7.280072,0,0,0,0,0,0,0,0,0,0,0,0,0,0,0,0,0,0,0,0,0,-0.03259277,-1.068604,-0.3602295,0,0,0,0,0,0
7.290072,0,0,0,0,0,0,0,0,0,0,0,0,0,0,0,0,0,0,0,0,0,-0.05212402,-1.098145,-0.3740234,0,0,0,0,0,0
7.300072,0,0,0,0,0,0,0,0,0,0,0,0,0,0,0,0,0,0,0,0,0,-0.06225586,-1.123901,-0.3692627,0,0,0,0,0,0
7.310072,0,0,0,0,0,0,0,0,0,0,0,0,0,0,0,0,0,0,0,0,0,-0.06420898,-1.129639,-0.4061279,0,0,0,0,0,0
7.320073,0,0,0,0,0,0,0,0,0,0,0,0,0,0,0,0,0,0,0,0,0,-0.09460449,-1.133057,-0.4215088,0,0,0,0,0,0
7.330073,0,0,0,0,0,0,0,0,0,0,0,0,0,0,0,0,0,0,0,0,0,-0.1090088,-1.142212,-0.4389648,0,0,0,0,0,0
7.340073,0,0,0,0,0,0,0,0,0,0,0,0,0,0,0,0,0,0,0,0,0,-0.1170654,-1.14917,-0.4493408,0,0,0,0,0,0
7.350073,0,0,0,0,0,0,0,0,0,0,0,0,0,0,0,0,0,0,0.0207593,0.08603577,-0.0004613178,-0.112915,-1.12854,-0.4379883,0,0,0,0,0,0
7.360074,0,0,0,0,0,0,0,0,0,0,0,0,0,0,0,0,0,0,0,0,0,-0.1018066,-1.113281,-0.4362793,0,0,0,0,0,0
7.370074,0,0,0,0,0,0,0,0,0,0,0,0,0,0,0,0,0,0,0,0,0,-0.07922363,-1.052856,-0.4302979,0,0,0,0,0,0
7.380074,0,0,0,0,0,0,0,0,0,0,0,0,0,0,0,0,0,0,-0.03875411,0.08604336,-0.02053045,-0.0769043,-0.9849854,-0.4256592,0,0,0,0,0,0
7.390074,0,0,0,0,0,0,0,0,0,0,0,0,0,0,0,0,0,0,0,0,0,-0.06164551,-0.9484863,-0.4239502,0,0,0,0,0,0
7.400074,0,0,0,0,0,0,0,0,0,0,0,0,0,0,0,0,0,0,0,0,0,-0.04101563,-0.9051514,-0.4212646,0,0,0,0,0,0
7.410075,0,0,0,0,0,0,0,0,0,0,0,0,0,0,0,0,0,0,0,0,0,-0.01708984,-0.862793,-0.4119873,0,0,0,0,0,0
7.420075,0,0,0,0,0,0,0,0,0,0,0,0,0,0,0,0,0,0,0,0,0,-0.008422852,-0.8297119,-0.4127197,0,0,0,0,0,0
7.430075,0,0,0,0,0,0,0,0,0,0,0,0,0,0,0,0,0,0,0,0,0,-0.001953125,-0.8151855,-0.402832,0,0,0,0,0,0
7.440075,0,0,0,0,0,0,0,0,0,0,0,0,0,0,0,0,0,0,-0.04822791,0.07646498,0.01249428,-0.002929688,-0.8267822,-0.3685303,0,0,0,0,0,0
7.450076,0,0,0,0,0,0,0,0,0,0,0,0,0,0,0,0,0,0,0,0,0,-0.0007324219,-0.857666,-0.3348389,0,0,0,0,0,0
7.460076,0,0,0,0,0,0,0,0,0,0,0,0,0,0,0,0,0,0,0,0,0,0.01867676,-0.8967285,-0.2988281,0,0,0,0,0,0
7.470076,0,0,0,0,0,0,0,0,0,0,0,0,0,0,0,0,0,0,-0.04597894,0.1082004,0.0537254,0.02233887,-0.9041748,-0.2716064,0,0,0,0,0,0
7.480076,0,0,0,0,0,0,0,0,0,0,0,0,0,0,0,0,0,0,0,0,0,0.02355957,-0.8945313,-0.2561035,0,0,0,0,0,0
7.490077,0,0,0,0,0,0,0,0,0,0,0,0,0,0,0,0,0,0,0,0,0,0.01538086,-0.8719482,-0.2333984,0,0,0,0,0,0
7.500077,0,0,0,0,0,0,0,0,0,0,0,0,0,0,0,0,0,0,-0.0311417,0.1365621,0.04429041,0.004516602,-0.8963623,-0.206543,0,0,0,0,0,0
7.510077,0,0,0,0,0,0,0,0,0,0,0,0,0,0,0,0,0,0,0,0,0,-0.004638672,-0.9277344,-0.1811523,0,0,0,0,0,0
7.520077,0,0,0,0,0,0,0,0,0,0,0,0,0,0,0,0,0,0,0,0,0,-0.008666992,-0.9593506,-0.1276855,0,0,0,0,0,0
7.530077,0,0,0,0,0,0,0,0,0,0,0,0,0,0,0,0,0,0,-0.01914469,0.1559254,-0.02237391,-0.02099609,-1.01416,-0.09301758,0,0,0,0,0,0
7.540078,0,0,0,0,0,0,0,0,0,0,0,0,0,0,0,0,0,0,0,0,0,-0.03881836,-1.045898,-0.0826416,0,0,0,0,0,0
7.550078,0,0,0,0,0,0,0,0,0,0,0,0,0,0,0,1,0,0,0,0,0,-0.01879883,-1.032593,-0.09484863,0,0,0,0,0,0
7.560078,0,0,0,0,0,0,0,0,0,0,0,0,0,0,0,1,0,0,0,0,0,-0.0009765625,-0.994873,-0.1459961,0,0,0,0,0,0
7.570078,0,0,0,0,0,0,0,0,0,0,0,0,0,0,0,1,0,0,0,0,0,0.001586914,-0.9508057,-0.1929932,0,0,0,0,0,0
7.580079,0,0,0,0,0,0,0,0,0,0,0,0,0,0,0,1,0,0,0,0,0,0.03967285,-0.9719238,-0.2000732,0,0,0,0,0,0
7.590079,0,0,0,0,0,0,0,0,0,0,0,0,0,0,0,1,0,0,0,0,0,0.05749512,-0.9295654,-0.1761475,0,0,0,0,0,0
7.600079,0,0,0,0,0,0,0,0,0,0,0,0,0,0,0,1,0,0,0,0,0,0.08654785,-0.96875,-0.2229004,0,0,0,0,0,0
7.610079,0,0,0,0,0,0,0,0,0,0,0,0,0,0,0,1,0,0,0,0,0,0.1018066,-0.9539795,-0.2281494,0,0,0,0,0,0
7.62008,0,0,0,0,0,0,0,0,0,0,0,0,0,0,0,1,0,0,0.04822791,0.02473867,-0.1521803,0.1068115,-0.9588623,-0.2172852,0,0,0,0,0,0
7.63008,0,0,0,0,0,0,0,0,0,0,0,0,0,0,0,1,0,0,0,0,0,0.1459961,-0.9466553,-0.1987305,0,0,0,0,0,0
7.64008,0,0,0,0,0,0,0,0,0,0,0,0,0,0,0,1,0,0,0.06322619,-0.03773579,-0.09896274,0.1721191,-0.9503174,-0.1793213,0,0,0,0,0,0
7.65008,0,0,0,0,0,0,0,0,0,0,0,0,0,0,0,1,0,0,0,0,0,0.1829834,-0.9647217,-0.1870117,0,0,0,0,0,0
7.66008,0,0,0,0,0,0,0,0,0,0,0,0,0,0,0,1,0,0,0,0,0,0.1925049,-0.9619141,-0.1971436,0,0,0,0,0,0
7.670081,0,0,0,0,0,0,0,0,0,0,0,0,0,0,0,1,0,0,0.05722379,-0.08246223,-0.05572448,0.1759033,-0.9489746,-0.1928711,0,0,0,0,0,0
7.680081,0,0,0,0,0,0,0,0,0,0,0,0,0,0,0,1,0,0,0,0,0,0.1655273,-0.9516602,-0.192749,0,0,0,0,0,0
7.690081,0,0,0,0,0,0,0,0,0,0,0,0,0,0,0,1,0,0,0,0,0,0.1567383,-0.9554443,-0.1945801,0,0,0,0,0,0
7.700081,0,0,0,0,0,0,0,0,0,0,0,0,0,0,0,1,0,0,0.04023157,-0.1199451,0.01199451,0.112793,-0.9287109,-0.1917725,0,0,0,0,0,0
7.710082,0,0,0,0,0,0,0,0,0,0,0,0,0,0,0,0,0,0,0,0,0,0.1027832,-0.8961182,-0.1955566,0,0,0,0,0,0
7.720082,0,0,0,0,0,0,0,0,0,0,0,0,0,0,0,0,0,0,0,0,0,0.09265137,-0.8839111,-0.2167969,0,0,0,0,0,0
7.730082,0,0,0,0,0,0,0,0,0,0,0,0,0,0,0,0,0,0,0.03273501,-0.154929,0.07421601,0.078125,-0.8651123,-0.2218018,0,0,0,0,0,0
7.740082,0,0,0,0,0,0,0,0,0,0,0,0,0,0,0,0,0,0,0,0,0,0.06188965,-0.8544922,-0.2277832,0,0,0,0,0,0
7.750082,0,0,0,0,0,0,0,0,0,0,0,0,0,0,0,0,0,0,0,0,0,0.0447998,-0.8457031,-0.2287598,0,0,0,0,0,0
7.760083,0,0,0,0,0,0,0,0,0,0,0,0,0,0,0,0,0,0,0.03852343,-0.1875422,0.09457848,0.00769043,-0.8029785,-0.2650146,0,0,0,0,0,0
7.770083,0,0,0,0,0,0,0,0,0,0,0,0,0,0,0,0,0,0,0,0,0,-0.0111084,-0.7962646,-0.276001,0,0,0,0,0,0
7.780083,0,0,0,0,0,0,0,0,0,0,0,0,0,0,0,0,0,0,0,0,0,-0.05102539,-0.7689209,-0.2724609,0,0,0,0,0,0
7.790083,0,0,0,0,0,0,0,0,0,0,0,0,0,0,0,0,0,0,0.1017034,-0.2753739,0.1551789,-0.07666016,-0.7576904,-0.2868652,0,0,0,0,0,0
7.800084,0,0,0,0,0,0,0,0,0,0,0,0,0,0,0,0,0,0,0,0,0,-0.09899902,-0.7575684,-0.2766113,0,0,0,0,0,0
7.810084,0,0,0,0,0,0,0,0,0,0,0,0,0,0,0,0,0,0,0,0,0,-0.07910156,-0.7995605,-0.2613525,0,0,0,0,0,0
7.820084,0,0,0,0,0,0,0,0,0,0,0,0,0,0,0,0,0,0,0.2613803,-0.2491359,0.2034068,-0.04931641,-0.8814697,-0.2559814,0,0,0,0,0,0
7.830084,0,0,0,0,0,0,0,0,0,0,0,0,0,0,0,0,0,0,0,0,0,-0.06115723,-0.9240723,-0.2250977,0,0,0,0,0,0
7.840085,0,0,0,0,0,0,0,0,0,0,0,0,0,0,0,0,0,0,0,0,0,-0.07214355,-1.098633,-0.1812744,0,0,0,0,0,0
7.850085,0,0,0,0,0,0,0,0,0,0,0,0,0,0,0,0,0,0,0.4181381,-0.1273898,0.1451244,-0.119873,-1.327515,-0.1317139,0,0,0,0,0,0
7.860085,0,0,0,0,0,0,0,0,0,0,0,0,0,0,0,0,0,0,0,0,0,-0.1442871,-1.480591,-0.09082031,0,0,0,0,0,0
7.870085,0,0,0,0,0,0,0,0,0,0,0,0,0,0,0,0,0,0,0,0,0,-0.1536865,-1.61792,-0.06665039,0,0,0,0,0,0
7.880085,0,0,0,0,0,0,0,0,0,0,0,0,0,0,0,0,0,0,0.1284412,0.006247139,0.1109492,-0.1488037,-1.639038,-0.07202148,0,0,0,0,0,0
7.890086,0,0,0,0,0,0,0,0,0,0,0,0,0,0,0,0,0,0,0,0,0,-0.1411133,-1.595459,-0.08959961,0,0,0,0,0,0
7.900086,0,0,0,0,0,0,0,0,0,0,0,0,0,0,0,0,0,0,0,0,0,-0.1472168,-1.461426,-0.1193848,0,0,0,0,0,0
7.910086,0,0,0,0,0,0,0,0,0,0,0,0,0,0,0,0,0,0,-0.09526212,0.07865468,0.08718906,-0.1256104,-1.364624,-0.161499,0,0,0,0,0,0
7.920086,0,0,0,0,0,0,0,0,0,0,0,0,0,0,0,0,0,0,0,0,0,-0.1217041,-1.281738,-0.1956787,0,0,0,0,0,0
7.930087,0,0,0,0,0,0,0,0,0,0,0,0,0,0,0,0,0,0,0,0,0,-0.1341553,-1.168823,-0.2127686,0,0,0,0,0,0
7.940087,0,0,0,0,0,0,0,0,0,0,0,0,0,0,0,0,0,0,-0.2064223,0.08171923,0.07872036,-0.1405029,-1.062012,-0.208252,0,0,0,0,0,0
7.950087,0,0,0,0,0,0,0,0,0,0,0,0,0,0,0,0,0,0,0,0,0,-0.1381836,-0.9975586,-0.2111816,0,0,0,0,0,0
7.960087,0,0,0,0,0,0,0,0,0,0,0,0,0,0,0,0,0,0,0,0,0,-0.128418,-0.9051514,-0.2105713,0,0,0,0,0,0
7.970088,0,0,0,0,0,0,0,0,0,0,0,0,0,0,0,0,0,0,-0.2161686,0.0594776,0.0467324,-0.1235352,-0.822876,-0.2200928,0,0,0,0,0,0
7.980088,0,0,0,0,0,0,0,0,0,0,0,0,0,0,0,0,0,0,0,0,0,-0.1256104,-0.7891846,-0.2346191,0,0,0,0,0,0
7.990088,0,0,0,0,0,0,0,0,0,0,0,0,0,0,0,0,0,0,0,0,0,-0.1273193,-0.7418213,-0.2210693,0,0,0,0,0,0
8.000088,0,0,0,0,0,0,0,0,0,0,0,0,0,0,0,0,0,0,-0.1436842,0.04048146,0.005747368,-0.1278076,-0.7078857,-0.2224121,0,0,0,0,0,0
8.010088,0,0,0,0,0,0,0,0,0,0,0,0,0,0,0,0,0,0,0,0,0,-0.1258545,-0.6875,-0.2368164,0,0,0,0,0,0
8.020088,0,0,0,0,0,0,0,0,0,0,0,0,0,0,0,0,0,0,0,0,0,-0.1245117,-0.677002,-0.2507324,0,0,0,0,0,0
8.030088,0,0,0,0,0,0,0,0,0,0,0,0,0,0,0,0,0,0,-0.04972723,0.02149016,-0.04522929,-0.138916,-0.708374,-0.2331543,0,0,0,0,0,0
8.040089,0,0,0,0,0,0,0,0,0,0,0,0,0,0,0,0,0,0,0,0,0,-0.1390381,-0.7374268,-0.2149658,0,0,0,0,0,0
8.050089,0,0,0,0,0,0,0,0,0,0,0,0,0,0,0,0,0,0,0,0,0,-0.1212158,-0.7723389,-0.2154541,0,0,0,0,0,0
8.060089,0,0,0,0,0,0,0,0,0,0,0,0,0,0,0,0,0,0,-0.02006732,0.0207593,-0.08972631,-0.1062012,-0.802002,-0.2169189,0,0,0,0,0,0
8.070089,0,0,0,0,0,0,0,0,0,0,0,0,0,0,0,0,0,0,0,0,0,-0.07226563,-0.8347168,-0.2282715,0,0,0,0,0,0
8.08009,0,0,0.1244286,0.0134,0,0,0,0,0,0,0,0,0,0,0,0,0,0,0,0,0,-0.09741211,-0.8930664,-0.2242432,0,0,0,0,0,0
8.09009,0,0,0.3548964,0.03394661,0,0,0,0,0,0,0,0,0,0,0,0,0,0,0.05028364,0.03852003,-0.06527647,-0.09008789,-0.940918,-0.2290039,0,0,0,0,0,0
8.10009,0,0,0.5394596,0.05220576,0,0,0,0,0,0,0,0,0,0,0,0,0,0,0,0,0,-0.08093262,-0.9685059,-0.2392578,0,0,0,0,0,0
8.11009,0,0,0.8066644,0.05680735,0,0,0,0,0,0,0,0,0,0,0,0,0,0,0,0,0,-0.08618164,-1.021606,-0.2351074,0,0,0,0,0,0
8.12009,0,0,1,0.05884144,0,0,0,0,0,0,0,0,0,0,0,0,0,0,0.08870938,0.05147642,-0.02623798,-0.06640625,-1.052002,-0.2359619,0,0,0,0,0,0
8.130091,0,0,1,0.01960851,0,0,0,0,0,0,0,0,0,0,0,0,0,0,0,0,0,-0.04370117,-1.067993,-0.2275391,0,0,0,0,0,0
8.140091,0,0,1,-0.02745281,0,0,0,0,0,0,0,0,0,0,0,0,0,0,0,0,0,-0.03161621,-1.085327,-0.2530518,0,0,0,0,0,0
8.150091,0,0,1,-0.06669273,0,0,0,0,0,0,0,0,0,0,0,0,0,0,0.03773272,0.05272585,-0.0467286,-0.03869629,-1.086426,-0.2463379,0,0,0,0,0,0
8.160091,0,0,1,-0.09812176,0,0,0,0,0,0,0,0,0,0,0,0,0,0,0,0,0,-0.05053711,-1.078491,-0.2471924,0,0,0,0,0,0
8.170092,0,0,1,-0.1217254,0,0,0,0,0,0,0,0,0,0,0,0,0,0,0,0,0,-0.05419922,-1.079102,-0.2545166,0,0,0,0,0,0
8.180092,0,0,1,-0.1217254,0,0,0,0,0,0,0,0,0,0,0,0,0,0,0.01591546,0.03852003,-0.05005298,-0.03674316,-1.060913,-0.2634277,0,0,0,0,0,0
8.190092,0,0,1,-0.1217254,0,0,0,0,0,0,0,0,0,0,0,0,0,0,0,0,0,-0.03100586,-1.057007,-0.2565918,0,0,0,0,0,0
8.200092,0,0,1,-0.1217254,0,0,0,0,0,0,0,0,0,0,0,0,0,0,0,0,0,-0.02685547,-1.04541,-0.2570801,0,0,0,0,0,0
8.210093,0,0,1,-0.1217254,0,0,0,0,0,0,0,0,0,0,0,0,0,0,0.01024531,0.02273958,-0.03073592,-0.02697754,-1.028809,-0.2489014,0,0,0,0,0,0
8.220093,0,0,1,-0.1217254,0,0,0,0,0,0,0,0,0,0,0,0,0,0,0,0,0,-0.02453613,-1.026855,-0.2408447,0,0,0,0,0,0
8.230093,0,0,1,-0.09812176,0,0,0,0,0,0,0,0,0,0,0,0,0,0,0,0,0,-0.05102539,-1.019775,-0.2086182,0,0,0,0,0,0
8.240093,0,0,0.9356657,-0.05047159,0,0,0,0,0,0,0,0,0,0,0,0,0,0,0,0,0,-0.0411377,-0.9876709,-0.1937256,0,0,0,0,0,0
8.250093,0,0,0.7324311,-0.01115377,0,0,0,0,0,0,0,0,0,0,0,0,0,0,-0.03698005,0.01024447,-0.02648571,-0.03894043,-0.9848633,-0.1950684,0,0,0,0,0,0
8.260094,0,0,0.5849337,0.02481537,0,0,0,0,0,0,0,0,0,0,0,0,0,0,0,0,0,-0.04638672,-0.9716797,-0.1895752,0,0,0,0,0,0
8.270094,0,0,0.3285208,0.0512372,0,0,0,0,0,0,0,0,0,0,0,0,0,0,0,0,0,-0.04711914,-0.9840088,-0.1885986,0,0,0,0,0,0
8.280094,0,0,0.1129435,0.03517912,0,0,0,0,0,0,0,0,0,0,0,0,0,0,-0.03423432,0.006996796,-0.02448878,-0.02722168,-0.9616699,-0.2248535,0,0,0,0,0,0
8.290094,0,0,0.01372116,0.007046003,0,0,0,0,0,0,0,0,0,0,0,0,0,0,0,0,0,-0.02709961,-0.963501,-0.2177734,0,0,0,0,0,0
8.300095,0,0,0,0,0,0,0,0,0,0,0,0,0,0,0,0,0,0,0,0,0,-0.02746582,-0.9628906,-0.2041016,0,0,0,0,0,0
8.310095,0,0,0,0,0,0,0,0,0,0,0,0,0,0,0,0,0,0,-0.02448878,0.005497482,-0.006497024,-0.04614258,-0.9660645,-0.184082,0,0,0,0,0,0
8.320095,0,0,0,0,0,0,0,0,0,0,0,0,0,0,0,0,0,0,0,0,0,-0.04492188,-0.9799805,-0.1708984,0,0,0,0,0,0
8.330095,0,0,0,0,0,0,0,0,0,0,0,0,0,0,0,0,0,0,0,0,0,-0.03430176,-0.965332,-0.1759033,0,0,0,0,0,0
8.340096,0,0,0,0,0,0,0,0,0,0,0,0,0,0,0,0,0,0,-0.03805872,0.01430085,-0.01037965,-0.0300293,-0.9575195,-0.1848145,0,0,0,0,0,0
8.350096,0,0,0,0,0,0,0,0,0,0,0,0,0,0,0,0,0,0,0,0,0,-0.03149414,-0.9555664,-0.1878662,0,0,0,0,0,0
8.360096,0,0,0,0,0,0,0,0,0,0,0,0,0,0,0,1,0,0,0,0,0,-0.02807617,-0.9468994,-0.2160645,0,0,0,0,0,0
8.370096,0,0,0,0,0,0,0,0,0,0,0,0,0,0,0,1,0,0,0,0,0,-0.02038574,-0.9487305,-0.2313232,0,0,0,0,0,0
8.380096,0,0,0,0,0,0,0,0,0,0,0,0,0,0,0,1,0,0,0,0,0,-0.01708984,-0.9660645,-0.2209473,0,0,0,0,0,0
8.390097,0,0,0,0,0,0,0,0,0,0,0,0,0,0,0,1,0,0,-0.001499313,0.01824165,-0.03123569,-0.01049805,-0.9748535,-0.2297363,0,0,0,0,0,0
8.400097,0,0,0,0,0,0,0,0,0,0,0,0,0,0,0,1,0,0,0,0,0,-0.008911133,-0.9816895,-0.2363281,0,0,0,0,0,0
8.410097,0,0,0,0,0,0,0,0,0,0,0,0,0,0,0,1,0,0,0,0,0,-0.009887695,-0.9958496,-0.2354736,0,0,0,0,0,0
8.420097,0,0,0,0,0,0,0,0,0,0,0,0,0,0,0,1,0,0,0,0,0,-0.006225586,-1.005737,-0.2381592,0,0,0,0,0,0
8.430098,0,0,0,0,0,0,0,0,0,0,0,0,0,0,0,1,0,0,0,0,0,-0.0007324219,-1.017822,-0.2271729,0,0,0,0,0,0
8.440098,0,0,0,0,0,0,0,0,0,0,0,0,0,0,0,1,0,0,0,0,0,-0.01220703,-1.019775,-0.2453613,0,0,0,0,0,0
8.450098,0,0,0,0,0,0,0,0,0,0,0,0,0,0,0,1,0,0,-0.002748741,0.01749199,-0.03748283,-0.004760742,-1.01416,-0.2565918,0,0,0,0,0,0
8.460098,0,0,0,0,0,0,0,0,0,0,0,0,0,0,0,1,0,0,0,0,0,-0.002563477,-1.014404,-0.2630615,0,0,0,0,0,0
8.470098,0,0,0,0,0,0,0,0,0,0,0,0,0,0,0,1,0,0,0,0,0,-0.001098633,-1.017212,-0.2641602,0,0,0,0,0,0
8.480099,0,0,0,0,0,0,0,0,0,0,0,0,0,0,0,1,0,0,0.002767907,0.01084097,-0.03044697,0.002563477,-1.015137,-0.2607422,0,0,0,0,0,0
8.490099,0,0,0,0,0,0,0,0,0,0,0,0,0,0,0,1,0,0,0,0,0,0.001220703,-1.013794,-0.2585449,0,0,0,0,0,0
8.500099,0,0,0,0,0,0,0,0,0,0,0,0,0,0,0,1,0,0,0,0,0,0.00390625,-1.022217,-0.2476807,0,0,0,0,0,0
8.510099,0,0,0,0,0,0,0,0,0,0,0,0,0,0,0,1,0,0,0,0,0,0.01171875,-1.033203,-0.2529297,0,0,0,0,0,0
8.5201,0,0,0,0,0,0,0,0,0,0,0,0,0,0,0,1,0,0,0,0,0,0.01269531,-1.038208,-0.2498779,0,0,0,0,0,0
8.5301,0,0,0,0,0,0,0,0,0,0,0,0,0,0,0,1,0,0,0,0,0,0.0201416,-1.043579,-0.2471924,0,0,0,0,0,0
8.5401,0,0,0,0,0,0,0,0,0,0,0,0,0,0,0,1,0,0,0,0,0,0.02148438,-1.036621,-0.2537842,0,0,0,0,0,0
8.5501,0,0,0,0,0,0,0,0,0,0,0,0,0,0,0,1,0,0,0,0,0,0.01501465,-1.028442,-0.2591553,0,0,0,0,0,0
8.560101,0,0,0,0,0,0,0,0,0,0,0,0,0,0,0,1,0,0,0,0,0,0.009155273,-1.014648,-0.2612305,0,0,0,0,0,0
8.570101,0,0,0,0,0,0,0,0,0,0,0,0,0,0,0,0,0,0,0,0,0,0.005126953,-1.007813,-0.2553711,0,0,0,0,0,0
8.580101,0,0,0,0,0,0,0,0,0,0,0,0,0,0,0,0,0,0,0,0,0,-0.0008544922,-1,-0.2495117,0,0,0,0,0,0
8.590101,0,0,0,0,0,0,0,0,0,0,0,0,0,0,0,0,0,0,0,0,0,-0.002929688,-0.9841309,-0.2390137,0,0,0,0,0,0
8.600101,0,0,0,0,0,0,0,0,0,0,0,0,0,0,0,0,0,0,0,0,0,0.008056641,-0.9812012,-0.2437744,0,0,0,0,0,0
8.610102,0,0,0,0,0,0,0,0,0,0,0,0,0,0,0,0,0,0,0,0,0,0.01037598,-0.9754639,-0.2368164,0,0,0,0,0,0
8.620102,0,0,0,0,0,0,0,0,0,0,0,0,0,0,0,0,0,0,0,0,0,0.01550293,-0.9544678,-0.2285156,0,0,0,0,0,0
8.630102,0,0,0,0,0,0,0,0,0,0,0,0,0,0,0,0,0,0,-0.01868337,-0.00830372,-0.02145128,0.01623535,-0.9458008,-0.2241211,0,0,0,0,0,0
8.640102,0,0,0,0,0,0,0,0,0,0,0,0,0,0,0,0,0,0,0,0,0,0.0123291,-0.9537354,-0.2174072,0,0,0,0,0,0
8.650103,0,0,0,0,0,0,0,0,0,0,0,0,0,0,0,0,0,0,0,0,0,0.004150391,-0.9523926,-0.2028809,0,0,0,0,0,0
8.660103,0,0,0,0,0,0,0,0,0,0,0,0,0,0,0,0,0,0,-0.0189913,-0.003498398,-0.02448878,-0.001586914,-0.9613037,-0.1877441,0,0,0,0,0,0
8.670103,0,0,0,0,0,0,0,0,0,0,0,0,0,0,0,0,0,0,0,0,0,0.005126953,-0.9688721,-0.2022705,0,0,0,0,0,0
8.680103,0,0,0,0,0,0,0,0,0,0,0,0,0,0,0,0,0,0,0,0,0,-0.00402832,-0.9637451,-0.2141113,0,0,0,0,0,0
8.690104,0,0,0,0,0,0,0,0,0,0,0,0,0,0,0,0,0,0,0,0,0,-0.01147461,-0.9753418,-0.2042236,0,0,0,0,0,0
8.700104,0,0,0,0,0,0,0,0,0,0,0,0,0,0,0,0,0,0,0,0,0,-0.01660156,-0.9768066,-0.1977539,0,0,0,0,0,0
8.710104,0,0,0,0,0,0,0,0,0,0,0,0,0,0,0,1,0,0,0,0,0,-0.01647949,-0.9672852,-0.2095947,0,0,0,0,0,0
8.720104,0,0,0,0,0,0,0,0,0,0,0,0,0,0,0,1,0,0,0,0,0,-0.01428223,-0.9554443,-0.2220459,0,0,0,0,0,0
8.730104,0,0,0,0,0,0,0,0,0,0,0,0,0,0,0,1,0,0,0,0,0,-0.01513672,-0.9506836,-0.2280273,0,0,0,0,0,0
8.740105,0,0,0,0,0,0,0,0,0,0,0,0,0,0,0,1,0,0,0,0,0,-0.008300781,-0.9354248,-0.2647705,0,0,0,0,0,0
8.750105,0,0,0,0,0,0,0,0,0,0,0,0,0,0,0,1,0,0,0,0,0,0.004760742,-0.9376221,-0.2862549,0,0,0,0,0,0
8.760105,0,0,0,0,0,0,0,0,0,0,0,0,0,0,0,1,0,0,-0.02468268,-0.01314872,-0.05351758,0.01672363,-0.9449463,-0.2850342,0,0,0,0,0,0
8.770105,0,0,0,0,0,0,0,0,0,0,0,0,0,0,0,1,0,0,0,0,0,0.03674316,-0.9711914,-0.288208,0,0,0,0,0,0
8.780106,0,0,0,0,0,0,0,0,0,0,0,0,0,0,0,1,0,0,0,0,0,0.03308105,-0.9614258,-0.2897949,0,0,0,0,0,0
8.790106,0,0,0,0,0,0,0,0,0,0,0,0,0,0,0,1,0,0,0.01199451,-0.00674691,-0.0259881,0.04089355,-0.9816895,-0.2786865,0,0,0,0,0,0
8.800106,0,0,0,0,0,0,0,0,0,0,0,0,0,0,0,1,0,0,0,0,0,0.03503418,-0.9898682,-0.2584229,0,0,0,0,0,0
8.810106,0,0,0,0,0,0,0,0,0,0,0,0,0,0,0,1,0,0,0,0,0,0.0435791,-1.005249,-0.2598877,0,0,0,0,0,0
8.820107,0,0,0,0,0,0,0,0,0,0,0,0,0,0,0,1,0,0,0,0,0,0.04162598,-1.016602,-0.2613525,0,0,0,0,0,0
8.830107,0,0,0,0,0,0,0,0,0,0,0,0,0,0,0,1,0,0,0.05123071,0.01224539,0.01174558,0.04382324,-1.016968,-0.2568359,0,0,0,0,0,0
8.840107,0,0,0,0,0,0,0,0,0,0,0,0,0,0,0,1,0,0,0,0,0,0.03796387,-1.020508,-0.2529297,0,0,0,0,0,0
8.850107,0,0,0,0,0,0,0,0,0,0,0,0,0,0,0,0,0,0,0,0,0,0.0279541,-1.017456,-0.2449951,0,0,0,0,0,0
8.860107,0,0,0,0,0,0,0,0,0,0,0,0,0,0,0,0,0,0,0.04123111,0.008745994,0.01599267,0.01928711,-1.014526,-0.2261963,0,0,0,0,0,0
8.870108,0,0,0,0,0,0,0,0,0,0,0,0,0,0,0,0,0,0,0,0,0,0.01599121,-1.01123,-0.2114258,0,0,0,0,0,0
8.880108,0,0,0,0,0,0,0,0,0,0,0,0,0,0,0,0,0,0,0,0,0,0.01220703,-0.977417,-0.2261963,0,0,0,0,0,0
8.890108,0,0,0,0,0,0,0,0,0,0,0,0,0,0,0,0,0,0,0,0,0,0.006225586,-0.9788818,-0.2342529,0,0,0,0,0,0
8.900108,0,0,0,0,0,0,0,0,0,0,0,0,0,0,0,0,0,0,0,0,0,0.008422852,-0.9562988,-0.2075195,0,0,0,0,0,0
8.910109,0.01036987,0.02128552,0,0,0,0,0,0,0,0,0,0,0,0,0,0,0,0,0,0,0,0.02185059,-0.9685059,-0.2253418,0,0,0,0,0,0
8.920109,0.0351396,0.06887362,0,0,0,0,0,0,0,0,0,0,0,0,0,0,0,0,-0.008073061,-0.008995697,-0.02537248,0.01477051,-0.9383545,-0.2492676,0,0,0,0,0,0
8.930109,0.05897412,0.094716,0,0,0,0,0,0,0,0,0,0,0,0,0,0,0,0,0,0,0,0.01391602,-0.9385986,-0.253418,0,0,0,0,0,0
8.940109,0.1068849,0.1341747,0,0,0,0,0,0,0,0,0,0,0,0,0,0,0,0,0,0,0,0.01623535,-0.9221191,-0.2492676,0,0,0,0,0,0
8.950109,0.1638777,0.1586753,0,0,0,0,0,0,0,0,0,0,0,0,0,0,0,0,0,0,0,0.02905273,-0.9217529,-0.2316895,0,0,0,0,0,0
8.96011,0.2126639,0.1843087,0,0,0,0,0,0,0,0,0,0,0,0,0,0,0,0,-0.001153498,-0.02306996,-0.02422346,0.03295898,-0.9447021,-0.2109375,0,0,0,0,0,0
8.97011,0.2409963,0.2112437,0,0,0,0,0,0,0,0,0,0,0,0,0,0,0,0,0,0,0,0.0480957,-0.9830322,-0.2119141,0,0,0,0,0,0
8.98011,0.2931386,0.2427061,0,0,0,0,0,0,0,0,0,0,0,0,0,0,0,0,0,0,0,0.03442383,-0.9820557,-0.2264404,0,0,0,0,0,0
8.99011,0.3390934,0.2798343,0,0,0,0,0,0,0,0,0,0,0,0,0,0,0,0,-0.01949107,-0.02149016,-0.002748741,0.01721191,-1.001221,-0.2128906,0,0,0,0,0,0
9.000111,0.3661911,0.2990001,0,0,0,0,0,0,0,0,0,0,0,0,0,0,0,0,0,0,0,0.01062012,-1.009033,-0.199585,0,0,0,0,0,0
9.010111,0.4216661,0.3449996,0,0,0,0,0,0,0,0,0,0,0,0,0,1,0,0,0,0,0,0.01989746,-0.9949951,-0.2044678,0,0,0,0,0,0
9.020111,0.4761129,0.3830382,0,0,0,0,0,0,0,0,0,0,0,0,0,1,0,0,-0.04347654,-0.003248248,0.002248787,0.02722168,-0.9873047,-0.2341309,0,0,0,0,0,0
9.030111,0.5033947,0.4019915,0,0,0,0,0,0,0,0,0,0,0,0,0,1,0,0,0,0,0,0.02294922,-0.9771729,-0.2352295,0,0,0,0,0,0
9.040112,0.5571589,0.431706,0,0,0,0,0,0,0,0,0,0,0,0,0,1,0,0,0,0,0,0.05383301,-0.9875488,-0.2717285,0,0,0,0,0,0
9.050112,0.5939834,0.4594966,0.06833278,0.003867893,0,0,0,0,0,0,0,0,0,0,0,1,0,0,-0.01049519,0.001999084,0.01174462,0.04211426,-0.9829102,-0.300415,0,0,0,0,0,0
9.060112,0.6119841,0.4693129,0.1604718,0.006594731,0,0,0,0,0,0,0,0,0,0,0,1,0,0,0,0,0,0.0435791,-0.9837646,-0.3054199,0,0,0,0,0,0
9.070112,0.6378216,0.4717615,0.2988061,0.008703089,0,0,0,0,0,0,0,0,0,0,0,1,0,0,0,0,0,0.0489502,-1.005371,-0.2697754,0,0,0,0,0,0
9.080112,0.6566843,0.4896663,0.4373835,-0.02302018,0,0,0,0,0,0,0,0,0,0,0,1,0,0,0.02673776,0,0.03873226,0.06445313,-1.014648,-0.28125,0,0,0,0,0,0
9.090113,0.6661085,0.4986298,0.5300454,-0.04503654,0,0,0,0,0,0,0,0,0,0,0,1,0,0,0,0,0,0.05871582,-1.005737,-0.2803955,0,0,0,0,0,0
9.100113,0.6856999,0.5248094,0.6418728,-0.09065999,0,0,0,0,0,0,0,0,0,0,0,1,0,0,0,0,0,0.0480957,-0.9885254,-0.2808838,0,0,0,0,0,0
9.110113,0.6965939,0.5503477,0.7262768,-0.1378064,0,0,0,0,0,0,0,0,0,0,0,1,0,0,0.03113895,-0.004843837,0.03944267,0.03283691,-0.9769287,-0.2739258,0,0,0,0,0,0
9.120113,0.7067106,0.5676855,0.7734234,-0.1697759,0,0,0,0,0,0,0,0,0,0,0,1,0,0,0,0,0,0.02990723,-0.973999,-0.2736816,0,0,0,0,0,0
9.130114,0.7175286,0.5934156,0.8304729,-0.2181426,0,0,0,0,0,0,0,0,0,0,0,0,0,0,0,0,0,0.01855469,-0.9805908,-0.2700195,0,0,0,0,0,0
9.140114,0.7275923,0.6108662,0.8772462,-0.2434648,0,0,0,0,0,0,0,0,0,0,0,0,0,0,0.03673318,-0.01099496,0.02798718,0.008666992,-0.9855957,-0.2556152,0,0,0,0,0,0
9.150114,0.7304208,0.6444889,0.9057642,-0.2682306,0,0,0,0,0,0,0,0,0,0,0,0,0,0,0,0,0,-0.002807617,-0.9921875,-0.2362061,0,0,0,0,0,0
9.160114,0.7411131,0.6705309,0.9061639,-0.2761272,0,0,0,0,0,0,0,0,0,0,0,0,0,0,0,0,0,-0.004394531,-0.9963379,-0.2332764,0,0,0,0,0,0
9.170115,0.7332068,0.6783143,0.9061639,-0.2761272,0,0,0,0,0,0,0,0,0,0,0,0,0,0,0,0,0,-0.008056641,-0.9945068,-0.2412109,0,0,0,0,0,0
9.180115,0.7431668,0.6959816,0.9061639,-0.2761272,0,0,0,0,0,0,0,0,0,0,0,0,0,0,0,0,0,-0.02111816,-0.9969482,-0.225708,0,0,0,0,0,0
9.190115,0.7431668,0.6959816,0.8515949,-0.2735893,0,0,0,0,0,0,0,0,0,0,0,0,0,0,0.01799139,-0.01822205,0.002767907,-0.009033203,-1.00647,-0.2275391,0,0,0,0,0,0
9.200115,0.7352645,0.7038094,0.7971523,-0.2708029,0,0,0,0,0,0,0,0,0,0,0,0,0,0,0,0,0,-0.006958008,-1.001587,-0.2281494,0,0,0,0,0,0
9.210115,0.7352645,0.7038094,0.6966158,-0.2495896,0,0,0,0,0,0,0,0,0,0,0,0,0,0,0,0,0,-0.005737305,-0.9992676,-0.2232666,0,0,0,0,0,0
9.220116,0.7266946,0.7031262,0.5860836,-0.2121407,0,0,0,0,0,0,0,0,0,0,0,0,0,0,0.003248777,-0.02673993,0.002748965,-0.008178711,-0.9893799,-0.2285156,0,0,0,0,0,0
9.230116,0.7266946,0.7031262,0.5121906,-0.1846673,0,0,0,0,0,0,0,0,0,0,0,0,0,0,0,0,0,-0.009155273,-0.9899902,-0.229126,0,0,0,0,0,0
9.240116,0.7095886,0.7017478,0.3732513,-0.1307975,0,0,0,0,0,0,0,0,0,0,0,0,0,0,0,0,0,-0.0078125,-0.984375,-0.2207031,0,0,0,0,0,0
9.250116,0.7010527,0.7010527,0.226368,-0.08255773,0,0,0,0,0,0,0,0,0,0,0,0,0,0,-0.001499191,-0.02473666,-0.002248787,0.005859375,-0.9822998,-0.2296143,0,0,0,0,0,0
9.260117,0.6925284,0.7003536,0.140719,-0.04410596,0,0,0,0,0,0,0,0,0,0,0,0,0,0,0,0,0,0.005859375,-0.9815674,-0.2277832,0,0,0,0,0,0
9.270117,0.6755158,0.6989441,0.02742006,-0.007014433,0,0,0,0,0,0,0,0,0,0,0,0,0,0,0,0,0,0.001708984,-0.9869385,-0.229126,0,0,0,0,0,0
9.280117,0.6670279,0.6982338,0,0,0,0,0,0,0,0,0,0,0,0,0,0,0,0,0,0,0,0.009399414,-0.9876709,-0.2320557,0,0,0,0,0,0
9.290117,0.6670279,0.6982338,0,0,0,0,0,0,0,0,0,0,0,0,0,0,0,0,0.0004997711,-0.01624256,0.00224897,0.002075195,-0.987793,-0.2347412,0,0,0,0,0,0
9.300117,0.6670279,0.6982338,0,0,0,0,0,0,0,0,0,0,0,0,0,0,0,0,0,0,0,-0.002319336,-0.9904785,-0.2355957,0,0,0,0,0,0
9.310118,0.6670279,0.6982338,0,0,0,0,0,0,0,0,0,0,0,0,0,0,0,0,0,0,0,-0.006958008,-0.9938965,-0.2349854,0,0,0,0,0,0
9.320118,0.6670279,0.6982338,0,0,0,0,0,0,0,0,0,0,0,0,0,0,0,0,0.002498855,-0.01524302,0.004997711,-0.009155273,-0.9937744,-0.2352295,0,0,0,0,0,0
9.330118,0.6585523,0.6975199,0,0,0,0,0,0,0,0,0,0,0,0,0,0,0,0,0,0,0,-0.009155273,-0.9909668,-0.2290039,0,0,0,0,0,0
9.340118,0.6585523,0.6975199,0,0,0,0,0,0,0,0,0,0,0,0,0,0,0,0,0,0,0,-0.01135254,-0.9871826,-0.2241211,0,0,0,0,0,0
9.350119,0.6508062,0.7053648,0,0,0,0,0,0,0,0,0,0,0,0,0,0,0,0,-0.0006920377,-0.01061124,-0.002076113,0.005859375,-0.9916992,-0.2366943,0,0,0,0,0,0
9.360119,0.6437842,0.7218187,0.08718024,-0.00764739,0,0,0,0,0,0,0,0,0,0,0,0,0,0,0,0,0,0.002197266,-0.9941406,-0.2412109,0,0,0,0,0,0
9.370119,0.6192523,0.728303,0.2162817,-0.01781143,0,0,0,0,0,0,0,0,0,0,0,0,0,0,0,0,0,0.002319336,-0.9884033,-0.2352295,0,0,0,0,0,0
9.380119,0.6039096,0.7441725,0.3273047,-0.03303075,0,0,0,0,0,0,0,0,0,0,0,0,0,0,0.009457849,-0.007612415,0.006920377,0.002441406,-1.003296,-0.2310791,0,0,0,0,0,0
9.39012,0.6046087,0.7528353,0.4014877,-0.04817852,0,0,0,0,0,0,0,0,0,0,0,0,0,0,0,0,0,0.002929688,-1.005127,-0.2220459,0,0,0,0,0,0
9.40012,0.5969493,0.7608178,0.4950688,-0.08535668,0,0,0,0,0,0,0,0,0,0,0,0,0,0,0,0,0,0.007324219,-1.007935,-0.2159424,0,0,0,0,0,0
9.41012,0.5906605,0.7862434,0.5607758,-0.1163874,0,0,0,0,0,0,0,0,0,0,0,0,0,0,0.003998169,-0.004747826,0.008995879,0.006347656,-1.003418,-0.2208252,0,0,0,0,0,0
9.42012,0.574699,0.7936319,0.5986262,-0.1397989,0,0,0,0,0,0,0,0,0,0,0,0,0,0,0,0,0,0.0008544922,-1.002075,-0.2198486,0,0,0,0,0,0
9.43012,0.5600961,0.8186021,0.6364713,-0.163664,0,0,0,0,0,0,0,0,0,0,0,0,0,0,0,0,0,-0.01013184,-1.001465,-0.2194824,0,0,0,0,0,0
9.440121,0.5531096,0.8355485,0.6470372,-0.1864345,0,0,0,0,0,0,0,0,0,0,0,0,0,0,-0.00549793,-0.005248024,-0.003248777,-0.01184082,-1.007813,-0.2210693,0,0,0,0,0,0
9.450121,0.5531096,0.8355485,0.657149,-0.2019173,0,0,0,0,0,0,0,0,0,0,0,0,0,0,0,0,0,-0.007446289,-1.011963,-0.2159424,0,0,0,0,0,0
9.460121,0.5454812,0.8437298,0.6576852,-0.2094305,0,0,0,0,0,0,0,0,0,0,0,0,0,0,0,0,0,-0.001464844,-0.9987793,-0.2132568,0,0,0,0,0,0
9.470121,0.5454812,0.8437298,0.6576852,-0.2094305,0,0,0,0,0,0,0,0,0,0,0,0,0,0,0,0,0,-0.003295898,-0.994751,-0.2091064,0,0,0,0,0,0
9.480122,0.5378564,0.8519332,0.6582352,-0.2169602,0,0,0,0,0,0,0,0,0,0,0,0,0,0,0,0,0,0.003173828,-0.9876709,-0.2203369,0,0,0,0,0,0
9.490122,0.5378564,0.8519332,0.6491943,-0.2163981,0,0,0,0,0,0,0,0,0,0,0,0,0,0,0,0,0,0.001342773,-0.9748535,-0.2213135,0,0,0,0,0,0
9.500122,0.5296187,0.851313,0.6221073,-0.2146452,0,0,0,0,0,0,0,0,0,0,0,0,0,0,-0.02514182,-0.01061031,-0.01822205,0.01074219,-0.9743652,-0.2247314,0,0,0,0,0,0
9.510122,0.5296187,0.851313,0.5860836,-0.2121407,0,0,0,0,0,0,0,0,0,0,0,0,0,0,0,0,0,0.01391602,-0.9709473,-0.2290039,0,0,0,0,0,0
9.520123,0.5213934,0.8506944,0.5233523,-0.2072334,0,0,0,0,0,0,0,0,0,0,0,0,0,0,0,0,0,0.01843262,-0.9611816,-0.2324219,0,0,0,0,0,0
9.530123,0.5220078,0.8595467,0.4434786,-0.1997346,0,0,0,0,0,0,0,0,0,0,0,0,0,0,-0.02768151,-0.01499415,-0.01430211,0.02600098,-0.9665527,-0.2288818,0,0,0,0,0,0
9.540123,0.5137931,0.8589365,0.3822226,-0.1927447,0,0,0,0,0,0,0,0,0,0,0,0,0,0,0,0,0,0.03161621,-0.9720459,-0.2281494,0,0,0,0,0,0
9.550123,0.5055906,0.8583282,0.3051556,-0.1818604,0,0,0,0,0,0,0,0,0,0,0,0,0,0,0,0,0,0.02722168,-0.9665527,-0.2359619,0,0,0,0,0,0
9.560123,0.498002,0.8666019,0.2230843,-0.1666072,0,0,0,0,0,0,0,0,0,0,0,0,0,0,-0.01974257,-0.02049228,0,0.02404785,-0.9589844,-0.2403564,0,0,0,0,0,0
9.570124,0.498002,0.8666019,0.1766723,-0.1555771,0,0,0,0,0,0,0,0,0,0,0,0,0,0,0,0,0,0.02453613,-0.9639893,-0.246582,0,0,0,0,0,0
9.580124,0.4909996,0.8837993,0.1243548,-0.1337401,0,0,0,0,0,0,0,0,0,0,0,0,0,0,0,0,0,0.0213623,-0.9664307,-0.2390137,0,0,0,0,0,0
9.590124,0.4758036,0.9004879,0.07591285,-0.09072511,0,0,0,0,0,0,0,0,0,0,0,0,0,0,-0.01049519,-0.02648787,0.01049519,0.01245117,-0.9616699,-0.2429199,0,0,0,0,0,0
9.600124,0.4763633,0.9094208,0.04160042,-0.05168537,0,0,0,0,0,0,0,0,0,0,0,0,0,0,0,0,0,0.01013184,-0.9578857,-0.2554932,0,0,0,0,0,0
9.610125,0.4769163,0.9183595,0.0009635704,-0.001298725,0,0,0,0,0,0,0,0,0,0,0,0,0,0,0,0,0,0.009277344,-0.9578857,-0.263916,0,0,0,0,0,0
9.620125,0.4687534,0.9178113,0,0,0,0,0,0,0,0,0,0,0,0,0,0,0,0,0,0,0,0.01123047,-0.9603271,-0.267334,0,0,0,0,0,0
9.630125,0.4692967,0.9267623,0,0,0,0,0,0,0,0,0,0,0,0,0,0,0,0,0,0,0,0.01330566,-0.9621582,-0.2755127,0,0,0,0,0,0
9.640125,0.4692967,0.9267623,0,0,0,0,0,0,0,0,0,0,0,0,0,0,0,0,0,0,0,0.0201416,-0.9625244,-0.2790527,0,0,0,0,0,0
9.650126,0.4692967,0.9267623,0,0,0,0,0,0,0,0,0,0,0,0,0,0,0,0,0,0,0,0.01074219,-0.9685059,-0.270874,0,0,0,0,0,0
9.660126,0.4692967,0.9267623,0,0,0,0,0,0,0,0,0,0,0,0,0,0,0,0,0,0,0,0.008789063,-0.9761963,-0.2722168,0,0,0,0,0,0
9.670126,0.4692967,0.9267623,0,0,0,0,0,0,0,0,0,0,0,0,0,0,0,0,0.01174462,-0.05122654,0,0.008911133,-0.9830322,-0.2683105,0,0,0,0,0,0
9.680126,0.4692967,0.9267623,0,0,0,0,0,0,0,0,0,0,0,0,0,0,0,0,0.01084192,-0.05051875,-0.005766981,0.0111084,-0.9926758,-0.2674561,0,0,0,0,0,0
9.690126,0.4692967,0.9267623,0,0,0,0,0,0,0,0,0,0,0,0,0,0,0,0,0,0,0,0.01525879,-0.9998779,-0.2662354,0,0,0,0,0,0
9.700127,0.4692967,0.9267623,0,0,0,0,0,0,0,0,0,0,0,0,0,0,0,0,0,0,0,0.02294922,-1.002686,-0.263916,0,0,0,0,0,0
9.710127,0.4611413,0.9262241,0,0,0,0,0,0,0,0,0,0,0,0,0,0,0,0,0.007496567,-0.06072219,-0.008745994,0.02111816,-1.007324,-0.2575684,0,0,0,0,0,0
9.720127,0.4611413,0.9262241,0,0,0,0,0,0,0,0,0,0,0,0,0,0,0,0,0,0,0,0.02124023,-1.012451,-0.2498779,0,0,0,0,0,0
9.730127,0.4611413,0.9262241,0,0,0,0,0,0,0,0,0,0,0,0,0,0,0,0,0,0,0,0.01721191,-1.005127,-0.2443848,0,0,0,0,0,0
9.740128,0.4611413,0.9262241,0,0,0,0,0,0,0,0,0,0,0,0,0,0,0,0,0,0,0,0.01391602,-0.9873047,-0.2453613,0,0,0,0,0,0
9.750128,0.4611413,0.9262241,0,0,0,0,0,0,0,0,0,0,0,0,0,0,0,0,0.001499313,-0.06347093,-0.01224439,0.01708984,-0.9844971,-0.2451172,0,0,0,0,0,0
9.760128,0.4611413,0.9262241,0,0,0,0,0,0,0,0,0,0,0,0,0,0,0,0,0,0,0,0.01977539,-0.9853516,-0.2412109,0,0,0,0,0,0
9.770128,0.4611413,0.9262241,0,0,0,0,0,0,0,0,0,0,0,0,0,0,0,0,0,0,0,0.03405762,-0.9998779,-0.2364502,0,0,0,0,0,0
9.780128,0.4611413,0.9262241,0,0,0,0,0,0,0,0,0,0,0,0,0,0,0,0,0.0009996236,-0.06622507,-0.003998494,0.01647949,-0.9940186,-0.2252197,0,0,0,0,0,0
9.790129,0.4611413,0.9262241,0,0,0,0,0,0,0,0,0,0,0,0,0,0,0,0,0,0,0,0.01318359,-1.001953,-0.2414551,0,0,0,0,0,0
9.800129,0.4611413,0.9262241,0,0,0,0,0,0,0,0,0,0,0,0,0,0,0,0,0,0,0,0.01794434,-1.026123,-0.2583008,0,0,0,0,0,0
9.810129,0.4611413,0.9262241,0,0,0,0,0,0,0,0,0,0,0,0,0,0,0,0,-0.004997711,-0.08321189,0.009245765,0.03771973,-1.032471,-0.2382813,0,0,0,0,0,0
9.820129,0.4611413,0.9262241,0,0,0,0,0,0,0,0,0,0,0,0,0,0,0,0,0,0,0,0.02941895,-1.004883,-0.223877,0,0,0,0,0,0
9.83013,0.4611413,0.9262241,0,0,0,0,0,0,0,0,0,0,0,0,0,0,0,0,0,0,0,0.03161621,-0.8925781,-0.2519531,0,0,0,0,0,0
9.84013,0.4611413,0.9262241,0,0,0,0,0,0,0,0,0,0,0,0,0,0,0,0,-0.01360887,-0.08211457,-0.02837104,0.01428223,-0.9387207,-0.182373,0,0,0,0,0,0
9.85013,0.4606017,0.9172666,0.04199905,0.07933155,0,0,0,0,0,0,0,0,0,0,0,0,0,0,0,0,0,-0.07104492,-0.8776855,-0.2200928,0,0,0,0,0,0
9.86013,0.4583772,0.8814946,0,0,0,0,0,0,0,0,1,0,0,0,0,0,0,0,0,0,0,-0.02770996,-0.3031006,-0.5328369,0,0,0,0,0,0
9.870131,0.4535907,0.8102603,0,0,0,0,0,0,0,0,1,0,0,0,0,0,0,0,0,0,0,0.09680176,-0.9991455,-0.2593994,0,0,0,0,0,0
9.880131,0.4476125,0.7307178,0,0,0,0,0,0,0,0,1,0,0,0,0,0,0,0,0,0,0,-0.02453613,-0.9968262,-0.1790771,0,0,0,0,0,0
9.890131,0.4424807,0.6693939,0,0,0,0,0,0,0,0,1,0,0,0,0,0,0,0,0,0,0,0.01843262,-1.148926,-0.1412354,0,0,0,0,0,0
9.900131,0.4409313,0.6519754,0,0,0,0,0,0,0,0,1,0,0,0,0,0,0,0,0,0,0,-0.02355957,-1.062866,-0.1401367,0,0,0,0,0,0
9.910131,0.4401423,0.6432849,0,0,0,0,0,0,0,0,1,0,0,0,0,0,0,0,0,0,0,-0.02416992,-1.072266,-0.163208,0,0,0,0,0,0
9.920132,0.4401423,0.6432849,0,0,0,0,0,0,0,0,1,0,0,0,0,0,0,0,0,0,0,-0.0546875,-1.043823,-0.1606445,0,0,0,0,0,0
9.930132,0.4401423,0.6432849,0,0,0,0,0,0,0,0,1,0,0,0,0,0,0,0,-0.004248055,-0.06097208,0.005247597,-0.07983398,-1.022583,-0.151001,0,0,0,0,0,0
9.940132,0.4401423,0.6432849,0,0,0,0,0,0,0,0,1,0,0,0,0,0,0,0,0,0,0,-0.08435059,-1.030518,-0.1820068,0,0,0,0,0,0
9.950132,0.4401423,0.6432849,0,0,0,0,0,0,0,0,1,0,0,0,0,0,0,0,0,0,0,-0.09362793,-1.020996,-0.1837158,0,0,0,0,0,0
9.960133,0.4401423,0.6432849,0,0,0,0,0,0,0,0,1,0,0,0,0,0,0,0,-0.05747368,-0.04922745,-0.05147642,-0.08703613,-1.029785,-0.1972656,0,0,0,0,0,0
9.970133,0.4401423,0.6432849,0,0,0,0,0,0,0,0,0,0,0,0,0,0,0,0,0,0,0,-0.08178711,-0.9155273,-0.2436523,0,0,0,0,0,0
9.980133,0.4401423,0.6432849,0,0,0,0,0,0,0,0,0,0,0,0,0,0,0,0,0,0,0,-0.02233887,-1.057861,-0.2330322,0,0,0,0,0,0
9.990133,0.4401423,0.6432849,0,0,0,0,0,0,0,0,0,0,0,0,0,0,0,0,0,0,0,-0.02880859,-0.9382324,-0.2910156,0,0,0,0,0,0
10.00013,0.4401423,0.6432849,0,0,0,0,0,0,0,0,0,0,0,0,0,0,0,0,0,0,0,-0.01367188,-0.9537354,-0.2573242,0,0,0,0,0,0
10.01013,0.4401423,0.6432849,0,0,0,0,0,0,0,0,0,0,0,0,0,0,0,0,0,0,0,-0.008789063,-0.9760742,-0.2160645,0,0,0,0,0,0
10.02013,0.4401423,0.6432849,0,0,0,0,0,0,0,0,0,0,0,0,0,0,0,0,-0.02283725,-0.04844264,-0.03875411,-0.005615234,-0.9790039,-0.2351074,0,0,0,0,0,0
10.03013,0.4401423,0.6432849,0,0,0,0,0,0,0,0,0,0,0,0,0,0,0,0,0,0,0,-0.0123291,-0.9707031,-0.2363281,0,0,0,0,0,0
10.04013,0.4401423,0.6432849,0,0,0,0,0,0,0,0,0,0,0,0,0,0,0,0,0,0,0,0.004150391,-0.9593506,-0.2333984,0,0,0,0,0,0
10.05013,0.4401423,0.6432849,0,0,0,0,0,0,0,0,0,0,0,0,0,0,0,0,0,0,0,-0.001098633,-0.9576416,-0.2401123,0,0,0,0,0,0
10.06013,0.4401423,0.6432849,0,0,0,0,0,0,0,0,0,0,0,0,0,0,0,0,0.004498306,-0.04698231,-0.01499435,-0.01611328,-1.016602,-0.2282715,0,0,0,0,0,0
10.07014,0.4401423,0.6432849,0,0,0,0,0,0,0,0,0,0,0,0,0,0,0,0,0,0,0,-0.0246582,-1.036255,-0.2115479,0,0,0,0,0,0
10.08014,0.4401423,0.6432849,0,0,0,0,0,0,0,0,0,0,0,0,0,0,0,0,0,0,0,-0.01879883,-1.031616,-0.2235107,0,0,0,0,0,0
10.09014,0.4401423,0.6432849,0,0,0,0,0,0,0,0,0,0,0,0,0,0,0,0,0,0,0,-0.01708984,-1.022461,-0.2122803,0,0,0,0,0,0
10.10014,0.4401423,0.6432849,0,0,0,0,0,0,0,0,0,0,0,0,0,0,0,0,0,0,0,-0.02294922,-1.000732,-0.2043457,0,0,0,0,0,0
10.11014,0.4401423,0.6432849,0,0,0,0,0,0,0,0,0,0,0,0,0,0,0,0,0,0,0,-0.02636719,-1.011841,-0.2196045,0,0,0,0,0,0
10.12014,0.4401423,0.6432849,0,0,0,0,0,0,0,0,0,0,0,0,0,0,0,0,0,0,0,-0.02404785,-0.996582,-0.2176514,0,0,0,0,0,0
10.13014,0.4401423,0.6432849,0,0,0,0,0,0,0,0,0,0,0,0,0,0,0,0,0,0,0,-0.005249023,-1.011597,-0.2208252,0,0,0,0,0,0
10.14014,0.4482187,0.644079,0,0,0,0,0,0,0,0,0,0,0,0,0,0,0,0,-0.02560314,-0.01476217,-0.00207593,-0.004272461,-0.9987793,-0.236084,0,0,0,0,0,0
10.15014,0.4482187,0.644079,0,0,0,0,0,0,0,0,0,0,0,0,0,0,0,0,0,0,0,-0.02575684,-0.9614258,-0.2406006,0,0,0,0,0,0
10.16014,0.4563139,0.6448734,0,0,0,0,0,0,0,0,0,0,0,0,0,0,0,0,0,0,0,-0.03344727,-0.9185791,-0.24646,0,0,0,0,0,0
10.17014,0.4563139,0.6448734,0,0,0,0,0,0,0,0,0,0,0,0,0,0,0,0,-0.02006909,-0.01799298,-0.03414053,-0.01867676,-0.9372559,-0.2578125,0,0,0,0,0,0
10.18014,0.4636289,0.6370186,0,0,0,0,0,0,0,0,0,0,0,0,0,0,0,0,0,0,0,-0.01013184,-0.9515381,-0.2601318,0,0,0,0,0,0
10.19014,0.4709544,0.629195,0,0,0,0,0,0,0,0,0,0,0,0,0,0,0,0,-0.007496567,-0.02473867,-0.02648787,-0.004760742,-0.9799805,-0.2601318,0,0,0,0,0,0
10.20014,0.4774678,0.6128131,0,0,0,0,0,0,0,0,0,0,0,0,0,0,0,0,0,0,0,0.04602051,-0.9724121,-0.2828369,0,0,0,0,0,0
10.21014,0.4930059,0.605908,0,0,0,0,0,0,0,0,0,0,0,0,0,0,0,0,0,0,0,0.04492188,-0.946167,-0.2814941,0,0,0,0,0,0
10.22014,0.517701,0.6083932,-0.03222121,-0.003580134,0,0,0,0,0,0,0,0,0,0,0,0,0,0,0.01424464,-0.02898908,0.02773956,0.002563477,-0.9537354,-0.2501221,0,0,0,0,0,0
10.23014,0.5259687,0.6092156,-0.2451416,-0.03502022,0,0,0,0,0,0,0,0,0,0,0,0,0,0,0,0,0,-0.006835938,-0.9957275,-0.2163086,0,0,0,0,0,0
10.24014,0.5500626,0.6031721,-0.6248094,-0.1191833,0,0,0,0,0,0,0,0,0,0,0,0,0,0,0,0,0,-0.01916504,-1.057617,-0.1848145,0,0,0,0,0,0
10.25014,0.5751323,0.6056029,-0.9218476,-0.2217102,0,0,0,0,0,0,0,0,0,0,0,0,0,0,0,0,0,-0.02355957,-1.052612,-0.1818848,0,0,0,0,0,0
10.26014,0.5919256,0.6072012,-1,-0.2642672,0,0,0,0,0,0,0,0,0,0,0,0,0,0,0,0,0,-0.04040527,-1.026611,-0.1953125,0,0,0,0,0,0
10.27014,0.6172302,0.6095628,-1,-0.2642672,0,0,0,0,0,0,0,0,0,0,0,0,0,0,0,0,0,-0.05834961,-0.9836426,-0.2269287,0,0,0,0,0,0
10.28014,0.6341732,0.6111123,-1,-0.2642672,0,0,0,0,0,0,0,0,0,0,0,0,0,0,0,0,0,-0.06335449,-0.979126,-0.2320557,0,0,0,0,0,0
10.29014,0.6426657,0.6118793,-1,-0.2642672,0,0,0,0,0,0,0,0,0,0,0,0,0,0,-0.009745537,0.006497024,-0.008745994,-0.07165527,-0.9882813,-0.2365723,0,0,0,0,0,0
10.30014,0.6426657,0.6118793,-1,-0.2642672,0,0,0,0,0,0,0,0,0,0,0,0,0,0,0,0,0,-0.08605957,-0.9824219,-0.2301025,0,0,0,0,0,0
10.31014,0.6426657,0.6118793,-1,-0.2642672,0,0,0,0,0,0,0,0,0,0,0,0,0,0,0,0,0,-0.06518555,-0.9763184,-0.2277832,0,0,0,0,0,0
10.32014,0.6426657,0.6118793,-1,-0.2642672,0,0,0,0,0,0,0,0,0,0,0,0,0,0,0,0,0,-0.05834961,-0.9862061,-0.2296143,0,0,0,0,0,0
10.33014,0.6426657,0.6118793,-1,-0.2403741,0,0,0,0,0,0,0,0,0,0,0,0,0,0,0,0,0,-0.03613281,-0.9949951,-0.2305908,0,0,0,0,0,0
10.34014,0.6426657,0.6118793,-0.8550028,-0.1495297,0,0,0,0,0,0,0,0,0,0,0,0,0,0,0,0,0,-0.02734375,-0.9995117,-0.2440186,0,0,0,0,0,0
10.35014,0.6426657,0.6118793,-0.5390818,-0.03825741,0,0,0,0,0,0,0,0,0,0,0,0,0,0,-0.004997711,0.02273958,-0.02573821,-0.01000977,-0.9736328,-0.2659912,0,0,0,0,0,0
10.36014,0.6341732,0.6111123,0,0,0,0,0,0,0,0,0,0,0,0,0,0,0,0,0,0,0,-0.07897949,-0.9407959,-0.2592773,0,0,0,0,0,0
10.37014,0.6256946,0.6103401,0,0,0,0,0,0,0,0,0,0,0,0,0,0,0,0,0,0,0,0.06713867,-0.9898682,-0.2751465,0,0,0,0,0,0
10.38014,0.6256946,0.6103401,0,0,0,0,0,0,0,0,0,0,0,0,0,0,0,0,-0.009245765,0.0207405,-0.01699222,0.02111816,-0.9986572,-0.270752,0,0,0,0,0,0
10.39014,0.6172302,0.6095628,0,0,0,0,0,0,0,0,0,0,0,0,0,0,0,0,0,0,0,0.001098633,-0.9926758,-0.2641602,0,0,0,0,0,0
10.40014,0.6172302,0.6095628,0,0,0,0,0,0,0,0,0,0,0,0,0,0,0,0,0,0,0,-0.003540039,-0.9969482,-0.253418,0,0,0,0,0,0
10.41014,0.6172302,0.6095628,0,0,0,0,0,0,0,0,0,0,0,0,0,0,0,0,0,0,0,0.01843262,-1.049683,-0.2316895,0,0,0,0,0,0
10.42014,0.6172302,0.6095628,0,0,0,0,0,0,0,0,0,0,0,0,0,0,0,0,-0.01822205,0.03136961,0.01568481,0.002929688,-1.022095,-0.2563477,0,0,0,0,0,0
10.43014,0.6172302,0.6095628,0,0,0,0,0,0,0,0,0,0,0,0,0,0,0,0,0,0,0,0.004638672,-0.9868164,-0.2541504,0,0,0,0,0,0
10.44014,0.6172302,0.6095628,0,0,0,0,0,0,0,0,0,0,0,0,0,0,0,0,0,0,0,-0.001708984,-0.9824219,-0.2512207,0,0,0,0,0,0
10.45014,0.6172302,0.6095628,0,0,0,0,0,0,0,0,0,0,0,0,0,0,0,0,0,0,0,-0.01074219,-0.9692383,-0.2559814,0,0,0,0,0,0
10.46014,0.6172302,0.6095628,0,0,0,0,0,0,0,0,0,0,0,0,0,0,0,0,0,0,0,0.001586914,-0.8287354,-0.3029785,0,0,0,0,0,0
10.47014,0.6079932,0.6003455,0,0,0,0,0,0,0,0,1,0,0,0,0,0,0,0,0,0,0,0.1000977,-0.8934326,-0.3378906,0,0,0,0,0,0
10.48014,0.5887057,0.5735133,0,0,0,0,0,0,0,0,1,0,0,0,0,0,0,0,0,0,0,0.07434082,-0.9057617,-0.3585205,0,0,0,0,0,0
10.49014,0.5769567,0.5392472,0,0,0,0,0,0,0,0,1,0,0,0,0,0,0,0,0,0,0,0.009155273,-1.009766,-0.1960449,0,0,0,0,0,0
10.50014,0.5668193,0.521774,0,0,0,0,0,0,0,0,1,0,0,0,0,0,0,0,0.1379368,0.03748283,0.08196246,-0.01049805,-1.033569,-0.125,0,0,0,0,0,0
