Timestamp, Left Stick X, LeftStickY, Right Stick X, Right Stick Y, D-Pad Up, D-Pad Right,D-Pad Down, D-Pad Left, Button North, Button East, Button South, Button West, L1, R1, L2, R2, L3, R3,Gyroscope X, Gyroscope Y, Gyroscope Z, Accelerometer X, Accelerometer Y, Accelerometer Z,Touch 1, Touch 2, Touch 1 Pos X, Touch 1 Pos Y, Touch 2 Pos X, Touch 2 Pos Y
0,0.06669273,1,0.9354231,0.01164427,0,0,0,0,0,0,0,0,0,0,0,0,0,0,0,0,0,-0.1019287,-0.970459,0.2641602,0,0,0,0,0,0
0.01,0.06669273,1,0.6595572,0.0692353,0,0,0,0,0,0,0,0,0,0,0,0,0,0,-0.01374483,-0.006997366,-0.02574031,-0.08813477,-1.033325,0.3133545,0,0,0,0,0,0
0.02,0.06669273,1,0.4781649,0.1051285,0,0,0,0,0,0,0,0,0,0,0,0,0,0,0,0,0,-0.08898926,-1.081299,0.4197998,0,0,0,0,0,0
0.03,0.06669273,1,0.2814558,0.145172,0,0,0,0,0,0,0,0,0,0,0,0,0,0,0,0,0,-0.1148682,-1.075806,0.3155518,0,0,0,0,0,0
0.04,0.06669273,1,0.2144159,0.1915448,0,0,0,0,0,0,0,0,0,0,0,0,0,0,0,0,0,-0.07666016,-1.039185,0.3122559,0,0,0,0,0,0
0.05,0.06669273,1,0.2219222,0.2969382,0,0,0,0,0,0,0,0,0,0,0,1,0,0,0,0,0,-0.09729004,-0.9946289,0.2735596,0,0,0,0,0,0
0.05999999,0.06669273,1,0.2701963,0.4275257,0,0,0,0,0,0,0,0,0,0,0,1,0,0,0,0,0,-0.04638672,-0.9384766,0.1781006,0,0,0,0,0,0
0.06999999,0.05884144,1,0.328751,0.5455098,0,0,0,0,0,0,0,0,0,0,0,1,0,0,-0.08946632,-0.008246895,-0.01849304,-0.04248047,-0.9140625,0.135376,0,0,0,0,0,0
0.07999999,0.05884144,1,0.3617565,0.5663864,0,0,0,0,0,0,0,0,0,0,0,1,0,0,0,0,0,-0.04882813,-0.9042969,0.1469727,0,0,0,0,0,0
0.08999999,0.05099206,1,0.3854558,0.5690063,0,0,0,0,0,0,0,0,0,0,0,1,0,0,0,0,0,-0.05102539,-0.9500732,0.1065674,0,0,0,0,0,0
0.09999999,0.035298,1,0.3879321,0.5184513,0,0,0,0,0,0,0,0,0,0,0,1,0,0,0.01314872,-0.03160306,0.0002306792,-0.0715332,-0.9211426,0.1003418,0,0,0,0,0,0
0.11,0.01960851,1,0.3889874,0.4603613,0,0,0,0,0,0,0,0,0,0,0,1,0,0,0,0,0,-0.07897949,-0.8824463,0.1745605,0,0,0,0,0,0
0.12,0.01176485,1,0.3688727,0.3688727,0,0,0,0,0,0,0,0,0,0,0,1,0,0,0.07704686,-0.007151056,0.006689698,-0.07910156,-0.8868408,0.199707,0,0,0,0,0,0
0.13,0.01176485,1,0.3348697,0.3017142,0,0,0,0,0,0,0,0,0,0,0,1,0,0,0,0,0,-0.06616211,-0.901123,0.1723633,0,0,0,0,0,0
0.14,0.01176485,1,0.234405,0.182315,0,0,0,0,0,0,0,0,0,0,0,1,0,0,0,0,0,-0.05822754,-0.9616699,0.1834717,0,0,0,0,0,0
0.15,0.01176485,1,0.1449016,0.09890108,0,0,0,0,0,0,0,0,0,0,0,0,0,0,0,0,0,-0.05969238,-1.01355,0.1915283,0,0,0,0,0,0
0.16,0.01960851,1,0,0,0,0,0,0,0,0,0,0,0,0,0,0,0,0,0,0,0,-0.09204102,-1.076538,0.2390137,0,0,0,0,0,0
0.17,0.05099206,1,0,0,0,0,0,0,0,0,0,0,0,0,0,0,0,0,0,0,0,-0.0958252,-1.129028,0.3145752,0,0,0,0,0,0
0.18,0.07454614,1,0,0,0,0,0,0,0,0,0,0,0,0,0,0,0,0,0,0,0,-0.114624,-1.105469,0.3323975,0,0,0,0,0,0
0.19,0.1453634,1,0,0,0,0,0,0,0,0,0,0,0,0,0,0,0,0,0,0,0,-0.1323242,-1.126709,0.3231201,0,0,0,0,0,0
0.2,0.2165419,1,0,0,0,0,0,0,0,0,0,0,0,0,0,1,0,0,0,0,0,-0.15271,-1.118286,0.3408203,0,0,0,0,0,0
0.21,0.2562958,1,-0.00733856,0.05136992,0,0,0,0,0,0,0,0,0,0,0,1,0,0,0,0,0,-0.1702881,-1.036621,0.2844238,0,0,0,0,0,0
0.22,0.2642672,1,-0.05437363,0.1773053,0,0,0,0,0,0,0,0,0,0,0,1,0,0,0,0,0,-0.0723877,-0.932251,0.1826172,0,0,0,0,0,0
0.23,0.2642672,1,-0.1395819,0.2162151,0,0,0,0,0,0,0,0,0,0,0,1,0,0,-0.1111776,-0.008534378,-0.03436818,0.008178711,-0.8747559,0.2020264,0,0,0,0,0,0
0.24,0.2642672,1,-0.2027828,0.2027828,0,0,0,0,0,0,0,0,0,0,0,1,0,0,0,0,0,-0.007080078,-0.8406982,0.1588135,0,0,0,0,0,0
0.25,0.1374799,1,-0.2900062,0.146498,0,0,0,0,0,0,0,0,0,0,0,1,0,0,0,0,0,-0.06970215,-0.866333,0.126709,0,0,0,0,0,0
0.26,-0.1927661,1,-0.3490338,0.07721987,0,0,0,0,0,0,0,0,0,0,0,1,0,0,0.06671944,-0.02373913,-0.01949107,-0.05615234,-0.8626709,0.09838867,0,0,0,0,0,0
0.27,-0.4580168,1,-0.3732981,0.03450655,0,0,0,0,0,0,0,0,0,0,0,1,0,0,0,0,0,-0.0402832,-0.8565674,0.161377,0,0,0,0,0,0
0.28,-0.6418867,0.9209678,-0.3919809,-0.04142888,0,0,0,0,0,0,0,0,0,0,0,1,0,0,0,0,0,-0.05786133,-0.9794922,0.3300781,0,0,0,0,0,0
0.29,-0.7761437,0.7920645,-0.3992569,-0.1265936,0,0,0,0,0,0,0,0,0,0,0,1,0,0,0.1174558,-0.03198795,0.008246895,-0.1051025,-0.9822998,0.3134766,0,0,0,0,0,0
0.3,-0.8475996,0.712302,-0.3888309,-0.1797118,0,0,0,0,0,0,0,0,0,0,0,1,0,0,0,0,0,-0.1151123,-1.023315,0.2554932,0,0,0,0,0,0
0.31,-0.9423288,0.5685782,-0.3299063,-0.2274111,0,0,0,0,0,0,0,0,0,0,0,0,0,0,0,0,0,-0.2064209,-1.137085,0.3153076,0,0,0,0,0,0
0.32,-0.9800786,0.4642477,-0.2821859,-0.2263689,0,0,0,0,0,0,0,0,0,0,0,0,0,0,0,0,0,-0.2248535,-1.180542,0.4321289,0,0,0,0,0,0
0.33,-1,0.2882255,-0.1456784,-0.1880575,0,0,0,0,0,0,0,0,0,0,0,0,0,0,0,0,0,-0.213501,-1.239258,0.5549316,0,0,0,0,0,0
0.3399999,-1,0.06669273,0,0,0,0,0,0,0,0,0,0,0,0,0,1,0,0,-0.07047346,0.005997742,0.0254904,-0.2585449,-1.321167,0.637207,0,0,0,0,0,0
0.3499999,-1,-0.113854,0,0,0,0,0,0,0,0,0,0,0,0,0,1,0,0,0,0,0,-0.2817383,-1.336182,0.5645752,0,0,0,0,0,0
0.3599999,-0.9695919,-0.4392845,0,0,0,0,0,0,0,0,0,0,0,0,0,1,0,0,0,0,0,-0.1628418,-1.302612,0.5079346,0,0,0,0,0,0
0.3699999,-0.7742289,-0.766288,0.1805497,0.1697706,0,0,0,0,0,0,0,0,0,0,0,1,0,0,0,0,0,-0.2373047,-1.183228,0.5531006,0,0,0,0,0,0
0.3799999,-0.6155977,-0.9015527,0.2949152,0.3898305,0,0,0,0,0,0,0,0,0,0,0,1,0,0,-0.2389837,-0.08304453,-0.06159136,-0.1611328,-1.024902,0.2734375,0,0,0,0,0,0
0.3899999,-0.5597257,-0.9328762,0.3212011,0.4765072,0,0,0,0,0,0,0,0,0,0,0,1,0,0,0,0,0,-0.06530762,-0.9035645,0.1776123,0,0,0,0,0,0
0.3999999,-0.4167845,-1,0.3260315,0.5195007,0,0,0,0,0,0,0,0,0,0,0,1,0,0,-0.1416966,-0.1072096,-0.08246895,-0.03491211,-0.8265381,0.1278076,0,0,0,0,0,0
0.4099999,-0.3042357,-1,0.3260315,0.5195007,0,0,0,0,0,0,0,0,0,0,0,1,0,0,0,0,0,-0.07519531,-0.81604,0.1368408,0,0,0,0,0,0
0.4199999,-0.1532514,-1,0.3226349,0.4267106,0,0,0,0,0,0,0,0,0,0,0,1,0,0,0,0,0,-0.1044922,-0.8272705,0.07434082,0,0,0,0,0,0
0.4299999,-0.01960851,-1,0.2829929,0.2702741,0,0,0,0,0,0,0,0,0,0,0,1,0,0,0.1037109,-0.1069597,-0.03548664,-0.1790771,-0.8671875,0.2481689,0,0,0,0,0,0
0.4399998,0.05099206,-1,0.2055216,0.1561964,0,0,0,0,0,0,0,0,0,0,0,1,0,0,0,0,0,-0.25354,-0.9631348,0.2856445,0,0,0,0,0,0
0.4499998,0.09026043,-1,0.03176167,0.01107965,0,0,0,0,0,0,0,0,0,0,0,1,0,0,0.1127076,-0.09721339,-0.06722469,-0.1732178,-1.168823,0.2508545,0,0,0,0,0,0
0.4599998,0.09026043,-1,0,0,0,0,0,0,0,0,0,0,0,0,0,0,0,0,0,0,0,-0.08361816,-1.339478,0.2202148,0,0,0,0,0,0
0.4699998,0.09026043,-1,0,0,0,0,0,0,0,0,0,0,0,0,0,0,0,0,0,0,0,-0.0949707,-1.48877,0.2182617,0,0,0,0,0,0
0.4799998,0.09026043,-1,0,0,0,0,0,0,0,0,0,0,0,0,0,0,0,0,0,0,0,-0.005737305,-1.568237,0.2928467,0,0,0,0,0,0
0.4899998,0.09026043,-1,0,0,0,0,0,0,0,0,0,0,0,0,0,0,0,0,0,0,0,-0.006225586,-1.618408,0.2156982,0,0,0,0,0,0
0.4999998,0.09026043,-1,0,0,0,0,0,0,0,0,0,0,0,0,0,0,0,0,0,0,0,0.01782227,-1.66272,0.1917725,0,0,0,0,0,0
0.5099998,0.113854,-1,0,0,0,0,0,0,0,0,0,0,0,0,0,1,0,0,0,0,0,-0.06164551,-1.577637,0.206665,0,0,0,0,0,0
0.5199998,0.1453634,-1,0.0008597663,0.04040901,0,0,0,0,0,0,0,0,0,0,0,1,0,0,-0.685348,0.1420984,-0.1151089,-0.07470703,-1.47644,0.1260986,0,0,0,0,0,0
0.5299998,0.1374799,-1,0.01671966,0.1886933,0,0,0,0,0,0,0,0,0,0,0,1,0,0,0,0,0,-0.1125488,-1.176514,0.1870117,0,0,0,0,0,0
0.5399998,0.08090892,-0.8899981,0.02995447,0.4559736,0,0,0,0,0,0,0,0,0,0,0,1,0,0,0,0,0,0.114502,-1.036621,-0.2001953,0,0,0,0,0,0
0.5499998,-0.04690371,-0.6313961,0.03980373,0.6404782,0,0,0,0,0,0,0,0,0,0,0,1,0,0,-0.5345487,0.01424464,-0.1124577,0.1951904,-0.8927002,-0.3232422,0,0,0,0,0,0
0.5599998,-0.1433489,-0.4367141,0.0401613,0.668138,0,0,0,0,0,0,0,0,0,0,0,1,0,0,0,0,0,0.1585693,-0.9437256,-0.2269287,0,0,0,0,0,0
0.5699998,-0.2615691,-0.2014382,0.0401613,0.668138,0,0,0,0,0,0,0,0,0,0,0,1,0,0,0,0,0,0.2498779,-0.9089355,-0.2598877,0,0,0,0,0,0
0.5799997,-0.3935206,-0.06718644,0.05220576,0.5394596,0,0,0,0,0,0,0,0,0,0,0,1,0,0,-0.2074219,0.005997742,0.02474068,0.1713867,-1.021973,-0.2264404,0,0,0,0,0,0
0.5899997,-0.4927082,0.02378591,0.04850505,0.4106761,0,0,0,0,0,0,0,0,0,0,0,1,0,0,0,0,0,0.1348877,-0.9827881,-0.09216309,0,0,0,0,0,0
0.5999997,-0.6934453,0.2039545,0.03546106,0.1820335,0,0,0,0,0,0,0,0,0,0,0,1,0,0,0,0,0,0.1508789,-0.8970947,-0.1097412,0,0,0,0,0,0
0.6099997,-0.8490287,0.3760538,0,0,0,0,0,0,0,0,0,0,0,0,0,1,0,0,-0.1204546,0.05997742,0.0464825,0.123291,-0.9366455,-0.06640625,0,0,0,0,0,0
0.6199997,-0.9552274,0.4954499,0,0,0,0,0,0,0,0,0,0,0,0,0,0,0,0,0,0,0,0.02563477,-0.9926758,0.05847168,0,0,0,0,0,0
0.6299997,-0.9573756,0.5283443,0,0,0,0,0,0,0,0,0,0,0,0,0,0,0,0,-0.2673993,0.08846669,0.07322243,-0.004882813,-0.9587402,-0.007446289,0,0,0,0,0,0
0.6399997,-0.9501057,0.552572,0,0,0,0,0,0,0,0,0,0,0,0,0,0,0,0,0,0,0,-0.01220703,-1.132202,-0.0456543,0,0,0,0,0,0
0.6499997,-0.9268799,0.6006819,0,0,0,0,0,0,0,0,0,0,0,0,0,0,0,0,0,0,0,-0.01855469,-0.9991455,-0.001342773,0,0,0,0,0,0
0.6599997,-0.8951521,0.648488,0,0,0,0,0,0,0,0,0,0,0,0,0,0,0,0,0,0,0,0.02661133,-1.031128,0.02819824,0,0,0,0,0,0
0.6699997,-0.855685,0.7044476,0,0,0,0,0,0,0,0,0,0,0,0,0,0,0,0,-0.4486711,0.05974592,0.1104954,0.01330566,-0.8295898,0.1057129,0,0,0,0,0,0
0.6799996,-0.8327313,0.7450754,0,0,0,0,0,0,0,0,0,0,0,0,0,0,0,0,0,0,0,0.07385254,-0.7265625,0.184082,0,0,0,0,0,0
0.6899996,-0.7761437,0.7920645,0,0,0,0,0,0,0,0,0,0,0,0,0,1,0,0,0,0,0,0.05163574,-0.5992432,-0.09777832,0,0,0,0,0,0
0.6999996,-0.7529836,0.8246963,0.07360169,0.07360169,0,0,0,0,0,0,0,0,0,0,0,1,0,0,0,0,0,0.0300293,-0.4968262,-0.1796875,0,0,0,0,0,0
0.7099996,-0.7444481,0.8240681,0.09975371,0.1124882,0,0,0,0,0,0,0,0,0,0,0,1,0,0,0,0,0,0.08483887,-0.4039307,-0.2202148,0,0,0,0,0,0
0.7199996,-0.686801,0.7338959,0.1355773,0.1503675,0,0,0,0,0,0,0,0,0,0,0,1,0,0,0,0,0,0.05358887,-0.3272705,-0.2310791,0,0,0,0,0,0
0.7299996,-0.4249627,0.3687693,0.1638777,0.1586753,0,0,0,0,0,0,0,0,0,0,0,1,0,0,-0.08171923,-0.1087091,-0.1167061,0.0234375,-0.241333,-0.2246094,0,0,0,0,0,0
0.7399996,-0.03323896,0.005170505,0.1686935,0.1284085,0,0,0,0,0,0,0,0,0,0,0,1,0,0,0,0,0,0.01965332,-0.201416,-0.2265625,0,0,0,0,0,0
0.7499996,0.09555376,-0.3421441,0.148201,0.04080897,0,0,0,0,0,0,0,0,0,0,0,1,0,0,0.1814317,-0.1049605,-0.04123447,-0.05578613,-0.3504639,-0.07312012,0,0,0,0,0,0
0.7599996,0.2732109,-0.7073542,0.1510957,0,0,0,0,0,0,0,0,0,0,0,0,1,0,0,0,0,0,0.06689453,-0.4475098,-0.1339111,0,0,0,0,0,0
0.7699996,0.4662001,-1,0.1829325,-0.0756121,0,0,0,0,0,0,0,0,0,0,0,1,0,0,0,0,0,-0.07788086,-0.7149658,0.06420898,0,0,0,0,0,0
0.7799996,0.4743927,-1,0.2128152,-0.1266116,0,0,0,0,0,0,0,0,0,0,0,0,0,0,0,0,0,0.05822754,-0.8016357,0.04394531,0,0,0,0,0,0
0.7899995,0.4908059,-1,0.2600129,-0.1942625,0,0,0,0,0,0,0,0,0,0,0,0,0,0,0,0,0,-0.1141357,-0.791626,-0.05529785,0,0,0,0,0,0
0.7999995,0.5072563,-1,0.3051201,-0.2233354,0,0,0,0,0,0,0,0,0,0,0,0,0,0,0,0,0,-0.1151123,-0.8582764,-0.0267334,0,0,0,0,0,0
0.8099995,0.523744,-1,0.331225,-0.2347517,0,0,0,0,0,0,0,0,0,0,0,0,0,0,0,0,0,-0.05041504,-0.9366455,-0.03857422,0,0,0,0,0,0
0.8199995,0.540269,-1,0.3476895,-0.1881989,0,0,0,0,0,0,0,0,0,0,0,0,0,0,0,0,0,-0.01220703,-1.104492,-0.01696777,0,0,0,0,0,0
0.8299995,0.5983981,-1,0.3647544,-0.04676339,0,0,0,0,0,0,0,0,0,0,0,0,0,0,-0.1369484,-0.08096951,0.0007497177,-0.04919434,-0.9840088,-0.138916,0,0,0,0,0,0
0.8399995,0.6385895,-1,0.4014877,0.04817852,0,0,0,0,0,0,0,0,0,0,0,1,0,0,0,0,0,-0.01879883,-0.9429932,-0.3100586,0,0,0,0,0,0
0.8499995,0.7189054,-0.9438144,0.4359682,0.1364481,0,0,0,0,0,0,0,0,0,0,0,1,0,0,0,0,0,0.04333496,-1.060181,-0.4798584,0,0,0,0,0,0
0.8599995,0.7988358,-0.8710923,0.503974,0.1911625,0,0,0,0,0,0,0,0,0,0,0,1,0,0,-0.09346481,-0.09771321,-0.008246895,-0.02441406,-1.085693,-0.480957,0,0,0,0,0,0
0.8699995,0.8463007,-0.8142135,0.5695026,0.225652,0,0,0,0,0,0,0,0,0,0,0,1,0,0,0,0,0,-0.06738281,-1.051392,-0.4805908,0,0,0,0,0,0
0.8799995,0.9093114,-0.7250457,0.6803802,0.2714085,0,0,0,0,0,0,0,0,0,0,0,1,0,0,0,0,0,-0.09777832,-1.024902,-0.4932861,0,0,0,0,0,0
0.8899994,0.9397725,-0.6598403,0.7343847,0.2749235,0,0,0,0,0,0,0,0,0,0,0,1,0,0,0,0,0,-0.07751465,-1.082764,-0.4453125,0,0,0,0,0,0
0.8999994,0.9941757,-0.5469962,0.7976441,0.278603,0,0,0,0,0,0,0,0,0,0,0,1,0,0,0,0,0,-0.02026367,-1.049072,-0.4001465,0,0,0,0,0,0
0.9099994,1,-0.3847782,0.8392251,0.2107643,0,0,0,0,0,0,0,0,0,0,0,1,0,0,0.05028807,-0.04175295,0.07081853,-0.02770996,-1.005859,-0.3818359,0,0,0,0,0,0
0.9199994,1,-0.2642672,0.8641844,0.149792,0,0,0,0,0,0,0,0,0,0,0,1,0,0,0,0,0,-0.04882813,-0.9793701,-0.4232178,0,0,0,0,0,0
0.9299994,1,-0.08240198,0.8616771,0.02680773,0,0,0,0,0,0,0,0,0,0,0,1,0,0,0,0,0,-0.06640625,-1.047729,-0.3933105,0,0,0,0,0,0
0.9399994,1,0.06669273,0.8527624,-0.05736069,0,0,0,0,0,0,0,0,0,0,0,0,0,0,0,0,0,-0.05615234,-1.136108,-0.3040771,0,0,0,0,0,0
0.9499994,1,0.3122526,0.76464,-0.1770349,0,0,0,0,0,0,0,0,0,0,0,0,0,0,0,0,0,-0.09228516,-1.129639,-0.1939697,0,0,0,0,0,0
0.9599994,0.9790122,0.5874074,0.6432115,-0.2536091,0,0,0,0,0,0,0,0,0,0,0,0,0,0,0,0,0,-0.144043,-1.066284,-0.2630615,0,0,0,0,0,0
0.9699994,0.8918174,0.7238518,0.5272943,-0.2441833,0,0,0,0,0,0,0,0,0,0,0,0,0,0,0,0,0,-0.1860352,-0.9625244,-0.3132324,0,0,0,0,0,0
0.9799994,0.8197833,0.8037875,0.2568918,-0.1801196,0,0,0,0,0,0,0,0,0,0,0,0,0,0,0,0,0,-0.1767578,-1.03894,-0.2279053,0,0,0,0,0,0
0.9899994,0.7798811,0.8438712,0,0,0,0,0,0,0,0,0,0,0,0,0,0,0,0,0.02398901,0.04447963,-0.06447047,-0.1263428,-1.148071,-0.2341309,0,0,0,0,0,0
0.9999993,0.7633857,0.8513149,0,0,0,0,0,0,0,0,0,0,0,0,0,0,0,0,0,0,0,-0.1669922,-1.153687,-0.1984863,0,0,0,0,0,0
1.009999,0.7560699,0.8680802,0,0,0,0,0,0,0,0,0,0,0,0,0,0,0,0,0,0,0,-0.2034912,-1.13855,-0.102417,0,0,0,0,0,0
1.019999,0.7232483,0.8830822,0,0,0,0,0,0,0,0,0,0,0,0,0,1,0,0,-0.1524302,-0.008246223,-0.1434343,-0.1118164,-1.000977,-0.2103271,0,0,0,0,0,0
1.029999,0.7075,0.8993645,0,0,0,0,0,0,0,0,0,0,0,0,0,1,0,0,0,0,0,-0.001220703,-0.9068604,-0.2955322,0,0,0,0,0,0
1.039999,0.6755022,0.9233196,-0.02103553,0.1799706,0,0,0,0,0,0,0,0,0,0,0,1,0,0,0,0,0,0.06616211,-0.8717041,-0.3328857,0,0,0,0,0,0
1.049999,0.6430523,0.9386168,-0.03394661,0.3548964,0,0,0,0,0,0,0,0,0,0,0,1,0,0,-0.1171851,-0.05605506,-0.1577846,0.1357422,-0.8183594,-0.380127,0,0,0,0,0,0
1.059999,0.6112997,0.9628969,-0.04850505,0.4106761,0,0,0,0,0,0,0,0,0,0,0,1,0,0,0,0,0,0.1486816,-0.7888184,-0.3691406,0,0,0,0,0,0
1.069999,0.563032,0.9863042,-0.06232866,0.4297397,0,0,0,0,0,0,0,0,0,0,0,1,0,0,0,0,0,0.1396484,-0.7858887,-0.3709717,0,0,0,0,0,0
1.079999,0.5304679,0.9931315,-0.07367668,0.3940101,0,0,0,0,0,0,0,0,0,0,0,1,0,0,0,0,0,0.1057129,-0.7316895,-0.3841553,0,0,0,0,0,0
1.089999,0.4985325,1,-0.0902883,0.2883401,0,0,0,0,0,0,0,0,0,0,0,1,0,0,0,0,0,0.09960938,-0.7001953,-0.317627,0,0,0,0,0,0
1.099999,0.4580168,1,-0.08118059,0.1049407,0,0,0,0,0,0,0,0,0,0,0,1,0,0,0,0,0,0.06323242,-0.7198486,-0.2054443,0,0,0,0,0,0
1.109999,0.433522,1,-0.03209154,0.01643713,0,0,0,0,0,0,0,0,0,0,0,1,0,0,0,0,0,-0.01635742,-0.8063965,-0.206543,0,0,0,0,0,0
1.119999,0.4172379,1,0,0,0,0,0,0,0,0,0,0,0,0,0,1,0,0,0,0,0,-0.03820801,-0.8674316,-0.1746826,0,0,0,0,0,0
1.129999,0.3766855,1,0,0,0,0,0,0,0,0,0,0,0,0,0,1,0,0,0,0,0,-0.0748291,-0.9415283,-0.08508301,0,0,0,0,0,0
1.139999,0.3202776,1,0,0,0,0,0,0,0,0,0,0,0,0,0,1,0,0,0,0,0,-0.1164551,-1.017578,-0.01257324,0,0,0,0,0,0
1.149999,0.2642672,1,0,0,0,0,0,0,0,0,0,0,0,0,0,1,0,0,0,0,0,-0.07385254,-1.055298,-0.03967285,0,0,0,0,0,0
1.159999,0.1296006,1,0.003367693,-0.002143077,0,0,0,0,0,0,0,0,0,0,0,1,0,0,0,0,0,0.009887695,-1.113159,-0.1224365,0,0,0,0,0,0
1.169999,-0.09026043,1,0.1445074,-0.07781168,0,0,0,0,0,0,0,0,0,0,0,1,0,0,0,0,0,0.01318359,-1.177002,-0.1430664,0,0,0,0,0,0
1.179999,-0.4172379,1,0.3047796,-0.1357929,0,0,0,0,0,0,0,0,0,0,0,1,0,0,0.01174558,0.01624388,-0.08371848,0.06628418,-1.130981,-0.2261963,0,0,0,0,0,0
1.189999,-0.6046099,0.9889976,0.4161365,-0.1897582,0,0,0,0,0,0,0,0,0,0,0,1,0,0,0,0,0,0.05969238,-1.077759,-0.2520752,0,0,0,0,0,0
1.199999,-0.7554604,0.8593862,0.5917041,-0.2722565,0,0,0,0,0,0,0,0,0,0,0,1,0,0,0,0,0,-0.01013184,-1.024902,-0.2678223,0,0,0,0,0,0
1.209999,-0.8731322,0.7056823,0.7245246,-0.3755389,0,0,0,0,0,0,0,0,0,0,0,1,0,0,0.004382519,-0.00415186,-0.02560314,-0.03674316,-0.9615479,-0.2835693,0,0,0,0,0,0
1.219999,-0.9517779,0.5774385,0.7918825,-0.4442268,0,0,0,0,0,0,0,0,0,0,0,1,0,0,0,0,0,0.0006103516,-0.9468994,-0.2608643,0,0,0,0,0,0
1.229999,-1,0.3605264,0.8802837,-0.5644869,0,0,0,0,0,0,0,0,0,0,0,1,0,0,0,0,0,0.02026367,-0.951416,-0.1484375,0,0,0,0,0,0
1.239999,-1,0.2165419,0.8927374,-0.6149969,0,0,0,0,0,0,0,0,0,0,0,1,0,0,0,0,0,-0.005126953,-0.9941406,-0.02246094,0,0,0,0,0,0
1.249999,-1,0,0.8945485,-0.6400992,0,0,0,0,0,0,0,0,0,0,0,1,0,0,0,0,0,0.02624512,-0.8997803,-0.142334,0,0,0,0,0,0
1.259999,-1,-0.1690417,0.8463467,-0.6953552,0,0,0,0,0,0,0,0,0,0,0,0,0,0,0,0,0,0.04992676,-0.9562988,-0.1253662,0,0,0,0,0,0
1.269999,-1,-0.2802319,0.7828245,-0.7669296,0,0,0,0,0,0,0,0,0,0,0,0,0,0,0.02973638,0.005747368,0.003498398,-0.003417969,-0.9197998,-0.09985352,0,0,0,0,0,0
1.279999,-1,-0.3605264,0.5969493,-0.7608178,0,0,0,0,0,0,0,0,0,0,0,0,0,0,0.003921547,0.01153396,-0.02168385,-0.06335449,-0.925415,-0.07421875,0,0,0,0,0,0
1.289999,-1,-0.3762585,0.5277724,-0.72039,0,0,0,0,0,0,0,0,0,0,0,0,0,0,0,0,0,-0.08691406,-1.024414,-0.03942871,0,0,0,0,0,0
1.299999,-1,-0.3843456,0.4547064,-0.62757,0,0,0,0,0,0,0,0,0,0,0,0,0,0,0,0,0,-0.03173828,-1.112183,-0.06274414,0,0,0,0,0,0
1.309999,-1,-0.3843456,0.4209073,-0.5307092,0,0,0,0,0,0,0,0,0,0,0,0,0,0,0,0,0,-0.03137207,-1.144653,-0.06774902,0,0,0,0,0,0
1.319999,-1,-0.3843456,0.3920622,-0.3643056,0,0,0,0,0,0,0,0,0,0,0,1,0,0,0,0,0,-0.0456543,-1.149902,-0.0892334,0,0,0,0,0,0
1.329999,-1,-0.2962267,0.3604906,-0.1626993,0,0,0,0,0,0,0,0,0,0,0,1,0,0,-0.09921265,0.02998871,-0.03348739,-0.03076172,-1.166382,-0.0513916,0,0,0,0,0,0
1.339999,-1,-0.2006854,0.3285208,-0.0512372,0,0,0,0,0,0,0,0,0,0,0,1,0,0,0,0,0,0.001953125,-1.118408,-0.08557129,0,0,0,0,0,0
1.349999,-0.9815469,-0.003910546,0.2939091,0.0669298,0,0,0,0,0,0,0,0,0,0,0,1,0,0,0,0,0,0.04467773,-0.9729004,-0.2584229,0,0,0,0,0,0
1.359999,-0.8917359,0.1505528,0.2303513,0.1002706,0,0,0,0,0,0,0,0,0,0,0,1,0,0,-0.05397528,0.003998169,-0.06996796,0.1015625,-0.9384766,-0.3876953,0,0,0,0,0,0
1.369999,-0.8594148,0.2505021,0.1847411,0.1088201,0,0,0,0,0,0,0,0,0,0,0,1,0,0,0,0,0,0.09887695,-1.017212,-0.3474121,0,0,0,0,0,0
1.379999,-0.8501311,0.3920696,0.107481,0.08720156,0,0,0,0,0,0,0,0,0,0,0,1,0,0,0,0,0,0.1015625,-1.0271,-0.2769775,0,0,0,0,0,0
1.389999,-0.878473,0.5396898,0.008777132,0.01158581,0,0,0,0,0,0,0,0,0,0,0,1,0,0,0,0,0,0.05944824,-0.9581299,-0.2305908,0,0,0,0,0,0
1.399999,-0.9121541,0.6412961,0,0,0,0,0,0,0,0,0,0,0,0,0,1,0,0,0.08921641,-0.0007497177,0.05622883,0.09509277,-0.9857178,-0.1723633,0,0,0,0,0,0
1.409999,-0.8963585,0.6652973,0,0,0,0,0,0,0,0,0,0,0,0,0,1,0,0,0,0,0,-0.0008544922,-0.9532471,-0.1488037,0,0,0,0,0,0
1.419999,-0.888797,0.6815439,0,0,0,0,0,0,0,0,0,0,0,0,0,1,0,0,0.1008068,-0.00599766,0.04636653,0.02160645,-0.9437256,-0.1141357,0,0,0,0,0,0
1.429999,-0.8894031,0.6899853,0,0,0,0,0,0,0,0,0,0,0,0,0,0,0,0,0,0,0,0.05297852,-1.003418,-0.07971191,0,0,0,0,0,0
1.439999,-0.8900082,0.698437,0,0,0,0,0,0,0,0,0,0,0,0,0,0,0,0,0,0,0,-0.01916504,-1.099365,-0.02600098,0,0,0,0,0,0
1.449999,-0.8818683,0.7062927,0,0,0,0,0,0,0,0,0,0,0,0,0,0,0,0,0.01568619,0.02145317,0.03390985,-0.03222656,-1.123535,0.05065918,0,0,0,0,0,0
1.459999,-0.8737444,0.7141563,0,0,0,0,0,0,0,0,0,0,0,0,0,0,0,0,0,0,0,-0.05090332,-1.165527,0.03674316,0,0,0,0,0,0
1.469999,-0.8668616,0.7390295,0,0,0,0,0,0,0,0,0,0,0,0,0,0,0,0,0,0,0,-0.05664063,-1.110229,-0.05957031,0,0,0,0,0,0
1.479999,-0.8599966,0.763997,0,0,0,0,0,0,0,0,0,0,0,0,0,1,0,0,-0.1541919,0.03873542,-0.03198795,0.01525879,-0.9764404,-0.142334,0,0,0,0,0,0
1.489999,-0.851927,0.7719339,0,0,0,0,0,0,0,0,0,0,0,0,0,1,0,0,0,0,0,0.05944824,-0.9672852,-0.1739502,0,0,0,0,0,0
1.499999,-0.8525369,0.7804915,0,0,0,0,0,0,0,0,0,0,0,0,0,1,0,0,0,0,0,0.05908203,-0.9261475,-0.2388916,0,0,0,0,0,0
1.509999,-0.8606049,0.772543,0,0,0,0,0,0,0,0,0,0,0,0,0,1,0,0,-0.1064599,-0.0127452,-0.1094588,0.01647949,-0.9283447,-0.3282471,0,0,0,0,0,0
1.519999,-0.892418,0.7323431,0,0,0,0,0,0,0,0,0,0,0,0,0,1,0,0,0,0,0,0.08117676,-0.9818115,-0.3753662,0,0,0,0,0,0
1.529999,-0.9303717,0.6508609,0,0,0,0,0,0,0,0,0,0,0,0,0,1,0,0,0,0,0,0.1176758,-1.001831,-0.3592529,0,0,0,0,0,0
1.539999,-0.976846,0.5542106,0,0,0,0,0,0,0,0,0,0,0,0,0,1,0,0,0.01224539,-0.05472939,-0.02649003,0.08569336,-0.9958496,-0.2434082,0,0,0,0,0,0
1.549999,-0.9895671,0.4729256,0,0,0,0,0,0,0,0,0,0,0,0,0,1,0,0,0,0,0,0.1016846,-0.9779053,-0.1907959,0,0,0,0,0,0
1.559999,-1,0.3605264,0,0,0,0,0,0,0,0,0,0,0,0,0,1,0,0,0,0,0,0.1254883,-0.9705811,-0.210083,0,0,0,0,0,0
1.569999,-1,0.2722459,0,0,0,0,0,0,0,0,0,0,0,0,0,1,0,0,0,0,0,0.1048584,-0.9484863,-0.2011719,0,0,0,0,0,0
1.579999,-1,0.09812176,0,0,0,0,0,0,0,0,0,0,0,0,0,0,0,0,0,0,0,0.109375,-0.9685059,-0.1396484,0,0,0,0,0,0
1.589999,-1,-0.1374799,0,0,0,0,0,0,0,0,0,0,0,0,0,0,0,0,0.07081853,0.01084192,0.05859253,0.01037598,-1.022705,-0.1103516,0,0,0,0,0,0
1.599999,-1,-0.3042357,0,0,0,0,0,0,0,0,0,0,0,0,0,0,0,0,0,0,0,0.0007324219,-1.060303,0.005615234,0,0,0,0,0,0
1.609999,-0.9568346,-0.5201051,0,0,0,0,0,0,0,0,0,0,0,0,0,0,0,0,0,0,0,-0.02050781,-1.127075,0.06665039,0,0,0,0,0,0
1.619999,-0.9168625,-0.583458,0,0,0,0,0,0,0,0,0,0,0,0,0,0,0,0,0,0,0,-0.03649902,-1.160889,-0.0006103516,0,0,0,0,0,0
1.629999,-0.9015527,-0.6155977,0,0,0,0,0,0,0,0,0,0,0,0,0,1,0,0,0,0,0,0.002807617,-1.106079,-0.1287842,0,0,0,0,0,0
1.639999,-0.8927374,-0.6149969,0,0,0,0,0,0,0,0,0,0,0,0,0,1,0,0,-0.1929117,0.001249428,0.02523844,-0.004272461,-1.002075,-0.210083,0,0,0,0,0,0
1.649999,-0.8927374,-0.6149969,0,0,0,0,0,0,0,0,0,0,0,0,0,1,0,0,0,0,0,-0.01623535,-0.9285889,-0.2403564,0,0,0,0,0,0
1.659999,-0.8927374,-0.6149969,0,0,0,0,0,0,0,0,0,0,0,0,0,1,0,0,0,0,0,0.009765625,-0.8103027,-0.3007813,0,0,0,0,0,0
1.669999,-0.8769735,-0.6388811,0,0,0,0,0,0,0,0,0,0,0,0,0,1,0,0,-0.09420685,-0.03448421,-0.04198077,-0.02307129,-0.8811035,-0.3858643,0,0,0,0,0,0
1.679999,-0.8463467,-0.6953552,0,0,0,0,0,0,0,0,0,0,0,0,0,1,0,0,0,0,0,-0.001953125,-0.8830566,-0.3885498,0,0,0,0,0,0
1.689999,-0.7438167,-0.8154141,0,0,0,0,0,0,0,0,0,0,0,0,0,1,0,0,0,0,0,0.02612305,-0.9084473,-0.3082275,0,0,0,0,0,0
1.699999,-0.6407002,-0.9033475,0.02937255,-0.02601569,0,0,0,0,0,0,0,0,0,0,0,1,0,0,0,0,0,0.02600098,-0.9371338,-0.2459717,0,0,0,0,0,0
1.709999,-0.4580168,-1,0.07365233,-0.1283655,0,0,0,0,0,0,0,0,0,0,0,1,0,0,0,0,0,0.05664063,-0.9031982,-0.2171631,0,0,0,0,0,0
1.719999,-0.2642672,-1,0.1056715,-0.3170144,0,0,0,0,0,0,0,0,0,0,0,1,0,0,0.08895926,-0.02723753,0.02223982,0.0769043,-0.921875,-0.1899414,0,0,0,0,0,0
1.729999,-0.113854,-1,0.1183863,-0.4701629,0,0,0,0,0,0,0,0,0,0,0,0,0,0,0,0,0,0.08679199,-0.9696045,-0.1628418,0,0,0,0,0,0
1.739999,0.1059862,-1,0.122507,-0.7164806,0,0,0,0,0,0,0,0,0,0,0,0,0,0,0,0,0,-0.002563477,-1.005737,-0.1506348,0,0,0,0,0,0
1.749999,0.2962267,-1,0.1193488,-0.8816412,0,0,0,0,0,0,0,0,0,0,0,0,0,0,0.07021784,0.0224897,0.03848238,-0.03979492,-1.064453,-0.05212402,0,0,0,0,0,0
1.759999,0.4091095,-1,0.1208696,-0.9552598,0,0,0,0,0,0,0,0,0,0,0,0,0,0,0,0,0,-0.0447998,-1.099609,-0.01916504,0,0,0,0,0,0
1.769999,0.5568311,-1,0.1217254,-1,0,0,0,0,0,0,0,0,0,0,0,0,0,0,0,0,0,-0.03881836,-1.164063,-0.06799316,0,0,0,0,0,0
1.779999,0.653713,-0.9745538,0.1296006,-1,0,0,0,0,0,0,0,0,0,0,0,0,0,0,0,0,0,-0.06384277,-1.114136,-0.1325684,0,0,0,0,0,0
1.789999,0.7804915,-0.8525369,0.1296006,-1,0,0,0,0,0,0,0,0,0,0,0,1,0,0,0,0,0,-0.05554199,-1.129761,-0.114502,0,0,0,0,0,0
1.799999,0.8987648,-0.6990393,0.1343516,-0.8636888,0,0,0,0,0,0,0,0,0,0,0,1,0,0,0,0,0,-0.09094238,-1.053101,-0.1583252,0,0,0,0,0,0
1.809999,0.9773847,-0.5624949,0.1345948,-0.6438721,0,0,0,0,0,0,0,0,0,0,0,1,0,0,-0.1512054,0.03498967,-0.06398112,-0.03540039,-0.9047852,-0.3209229,0,0,0,0,0,0
1.819999,1,-0.4903153,0.1264991,-0.4889019,0,0,0,0,0,0,0,0,0,0,0,1,0,0,0,0,0,0.02868652,-0.8763428,-0.5759277,0,0,0,0,0,0
1.829999,1,-0.4009901,0.09744173,-0.2982307,0,0,0,0,0,0,0,0,0,0,0,1,0,0,0,0,0,0.02380371,-0.960083,-0.4768066,0,0,0,0,0,0
1.839999,1,-0.3524597,0.04809885,-0.1672008,0,0,0,0,0,0,0,0,0,0,0,1,0,0,-0.03021898,-0.07127988,-0.06781969,0.1174316,-0.9986572,-0.411377,0,0,0,0,0,0
1.849999,1,-0.2722459,0.01576469,-0.1068496,0,0,0,0,0,0,0,0,0,0,0,1,0,0,0.001153396,-0.07958434,-0.01822366,0.1347656,-1.034302,-0.3641357,0,0,0,0,0,0
1.859999,1,-0.2086106,-0.008651596,-0.1055495,0,0,0,0,0,0,0,0,0,0,0,1,0,0,0,0,0,0.1485596,-0.9835205,-0.2770996,0,0,0,0,0,0
1.869999,1,-0.08240198,-0.04385352,-0.1163072,0,0,0,0,0,0,0,0,0,0,0,1,0,0,0,0,0,0.1053467,-0.9742432,-0.244751,0,0,0,0,0,0
1.879999,1,0.04314433,-0.09851561,-0.1894531,0,0,0,0,0,0,0,0,0,0,0,1,0,0,0,0,0,0.1342773,-0.9782715,-0.2554932,0,0,0,0,0,0
1.889999,1,0.2244794,-0.2214254,-0.3369516,0,0,0,0,0,0,0,0,0,0,0,1,0,0,0,0,0,0.0402832,-0.9946289,-0.2830811,0,0,0,0,0,0
1.899999,1,0.3524597,-0.3720629,-0.5165533,0,0,0,0,0,0,0,0,0,0,0,0,0,0,0.08271885,-0.04373353,0.09496424,-0.01623535,-1.045044,-0.2523193,0,0,0,0,0,0
1.909999,1,0.3928797,-0.4709544,-0.629195,0,0,0,0,0,0,0,0,0,0,0,0,0,0,0,0,0,-0.09545898,-1.076538,-0.1875,0,0,0,0,0,0
1.919999,1,0.433522,-0.5669482,-0.698079,0,0,0,0,0,0,0,0,0,0,0,0,0,0,-0.03998494,-0.0294889,0.07447196,-0.05700684,-1.131592,-0.09875488,0,0,0,0,0,0
1.929999,1,0.4498426,-0.6178219,-0.711078,0,0,0,0,0,0,0,0,0,0,0,0,0,0,0,0,0,-0.04394531,-1.164917,-0.09069824,0,0,0,0,0,0
1.939999,1,0.4743927,-0.676924,-0.7160526,0,0,0,0,0,0,0,0,0,0,0,0,0,0,0,0,0,-0.0411377,-1.15918,-0.1424561,0,0,0,0,0,0
1.949998,1,0.4985325,-0.702439,-0.718136,0,0,0,0,0,0,0,0,0,0,0,1,0,0,-0.1912331,-0.02814287,0.04013819,-0.04040527,-1.11377,-0.1427002,0,0,0,0,0,0
1.959998,1,0.5149953,-0.7003536,-0.6925284,0,0,0,0,0,0,0,0,0,0,0,1,0,0,0,0,0,-0.02868652,-1.046631,-0.1645508,0,0,0,0,0,0
1.969998,1,0.5227324,-0.6982338,-0.6670279,0,0,0,0,0,0,0,0,0,0,0,1,0,0,0,0,0,-0.01611328,-0.9277344,-0.314209,0,0,0,0,0,0
1.979998,1,0.5227324,-0.6804411,-0.6571117,0,0,0,0,0,0,0,0,0,0,0,1,0,0,0,0,0,-0.08312988,-0.9442139,-0.3470459,0,0,0,0,0,0
1.989998,1,0.5227324,-0.6349406,-0.6195481,0,0,0,0,0,0,0,0,0,0,0,1,0,0,0,0,0,-0.01342773,-0.9373779,-0.4387207,0,0,0,0,0,0
1.999998,1,0.5227324,-0.5710425,-0.563479,0,0,0,0,0,0,0,0,0,0,0,1,0,0,-0.1049605,-0.1641882,-0.003748589,0.01281738,-0.9415283,-0.3859863,0,0,0,0,0,0
2.009999,1,0.5227324,-0.5358323,-0.5433264,0,0,0,0,0,0,0,0,0,0,0,1,0,0,0,0,0,0.03271484,-0.8945313,-0.3693848,0,0,0,0,0,0
2.019999,1,0.4985325,-0.4916089,-0.5137867,0,0,0,0,0,0,0,0,0,0,0,1,0,0,0,0,0,-0.04016113,-0.8859863,-0.1640625,0,0,0,0,0,0
2.029999,1,0.4743927,-0.4476562,-0.484051,0,0,0,0,0,0,0,0,0,0,0,1,0,0,0.0277373,-0.07496566,0.06447047,0.005981445,-0.8787842,-0.2200928,0,0,0,0,0,0
2.039999,1,0.4662001,-0.4313499,-0.482097,0,0,0,0,0,0,0,0,0,0,0,1,0,0,0.0537254,-0.04972723,0.07496566,-0.01269531,-0.8988037,-0.2675781,0,0,0,0,0,0
2.049999,1,0.4580168,-0.4222402,-0.4727647,0,0,0,0,0,0,0,0,0,0,0,0,0,0,0,0,0,-0.03430176,-0.9154053,-0.2125244,0,0,0,0,0,0
2.059999,1,0.4498426,-0.3745621,-0.4095679,0,0,0,0,0,0,0,0,0,0,0,0,0,0,0.05447505,0.001749199,0.08745994,-0.06604004,-0.9006348,-0.1289063,0,0,0,0,0,0
2.069999,1,0.4498426,-0.3001943,-0.280827,0,0,0,0,0,0,0,0,0,0,0,0,0,0,0,0,0,-0.09472656,-0.9527588,-0.1318359,0,0,0,0,0,0
2.079998,1,0.4416777,-0.02094085,-0.006639781,0,0,0,0,0,0,0,0,0,0,0,0,0,0,0,0,0,-0.09106445,-0.9899902,-0.1329346,0,0,0,0,0,0
2.089998,1,0.4416777,0,0,0,0,0,0,0,0,0,0,0,0,0,0,0,0,0,0,0,-0.1131592,-1.091431,-0.1066895,0,0,0,0,0,0
2.099998,1,0.4416777,0,0,0,0,0,0,0,0,0,0,0,0,0,0,0,0,0,0,0,-0.09814453,-1.059814,-0.09399414,0,0,0,0,0,0
2.109998,1,0.4498426,0,0,0,0,0,0,0,0,0,0,0,0,0,1,0,0,0,0,0,-0.1029053,-1.079956,-0.1505127,0,0,0,0,0,0
2.119998,1,0.4498426,0.0490868,0.08971035,0,0,0,0,0,0,0,0,0,0,0,1,0,0,-0.1786827,0.01724351,-0.004498306,-0.08911133,-0.9786377,-0.2110596,0,0,0,0,0,0
2.129998,1,0.4498426,0.1357929,0.3047796,0,0,0,0,0,0,0,0,0,0,0,1,0,0,-0.1737015,-0.04013819,-0.08258317,0.01159668,-0.8388672,-0.3571777,0,0,0,0,0,0
2.139998,1,0.4498426,0.1637528,0.3692465,0,0,0,0,0,0,0,0,0,0,0,1,0,0,0,0,0,0.01257324,-0.8591309,-0.3710938,0,0,0,0,0,0
2.149998,1,0.4498426,0.1877716,0.3986029,0,0,0,0,0,0,0,0,0,0,0,1,0,0,0,0,0,-0.0007324219,-0.8615723,-0.3964844,0,0,0,0,0,0
2.159998,1,0.4498426,0.2163733,0.4027871,0,0,0,0,0,0,0,0,0,0,0,1,0,0,-0.05298005,-0.1077094,-0.05897779,-0.0189209,-0.8850098,-0.3879395,0,0,0,0,0,0
2.169998,1,0.4416777,0.2298198,0.3963559,0,0,0,0,0,0,0,0,0,0,0,1,0,0,0,0,0,-0.03198242,-0.8568115,-0.3153076,0,0,0,0,0,0
2.179998,1,0.4009901,0.2366718,0.2997842,0,0,0,0,0,0,0,0,0,0,0,1,0,0,0,0,0,0.02368164,-0.8430176,-0.2067871,0,0,0,0,0,0
2.189998,1,0.3766855,0.2108964,0.1771529,0,0,0,0,0,0,0,0,0,0,0,1,0,0,0.1524426,-0.03448702,0.06547534,-0.003417969,-0.8702393,-0.2130127,0,0,0,0,0,0
2.199998,1,0.3605264,0.1894531,0.09851561,0,0,0,0,0,0,0,0,0,0,0,0,0,0,0,0,0,-0.01525879,-0.9404297,-0.1871338,0,0,0,0,0,0
2.209998,1,0.3444016,0.1721429,0.0298381,0,0,0,0,0,0,0,0,0,0,0,0,0,0,0,0,0,-0.06567383,-0.9387207,-0.1240234,0,0,0,0,0,0
2.219998,1,0.3042357,0.1708072,0.02049686,0,0,0,0,0,0,0,0,0,0,0,0,0,0,0.05972265,0.03923203,0.03448421,-0.1094971,-1.007202,-0.1195068,0,0,0,0,0,0
2.229998,1,0.2802319,0.2074874,0.02249864,0,0,0,0,0,0,0,0,0,0,0,0,0,0,0,0,0,-0.130127,-0.9260254,-0.04577637,0,0,0,0,0,0
2.239998,1,0.2324234,0.3097321,0.04424744,0,0,0,0,0,0,0,0,0,0,0,0,0,0,0,0,0,-0.1035156,-1.057861,0.01477051,0,0,0,0,0,0
2.249998,1,0.2165419,0.3872975,0.09922496,0,0,0,0,0,0,0,0,0,0,0,0,0,0,0,0,0,-0.0970459,-1.10376,0.01843262,0,0,0,0,0,0
2.259998,1,0.2086106,0.4638371,0.223329,0,0,0,0,0,0,0,0,0,0,0,0,0,0,0,0,0,-0.07250977,-1.067017,-0.1343994,0,0,0,0,0,0
2.269998,1,0.2086106,0.5468197,0.4147022,0,0,0,0,0,0,0,0,0,0,0,1,0,0,0,0,0,-0.1090088,-0.9940186,-0.2056885,0,0,0,0,0,0
2.279998,1,0.1690417,0.5942845,0.6326255,0,0,0,0,0,0,0,0,0,0,0,1,0,0,-0.1231827,0.009919208,-0.07727754,-0.04968262,-0.8337402,-0.362793,0,0,0,0,0,0
2.289998,1,0.09812176,0.6136672,0.7621982,0,0,0,0,0,0,0,0,0,0,0,1,0,0,0,0,0,-0.05554199,-0.8433838,-0.411377,0,0,0,0,0,0
2.299998,1,-0.08240198,0.6251402,0.9197923,0,0,0,0,0,0,0,0,0,0,0,1,0,0,0,0,0,-0.03955078,-0.8427734,-0.4395752,0,0,0,0,0,0
2.309998,1,-0.3686016,0.6023977,0.9534637,0,0,0,0,0,0,0,0,0,0,0,1,0,0,0.04698231,-0.1132074,-0.1094588,-0.001220703,-0.8878174,-0.479248,0,0,0,0,0,0
2.319998,0.9512189,-0.5691394,0.5863066,0.9612237,0,0,0,0,0,0,0,0,0,0,0,1,0,0,0,0,0,-0.01672363,-0.9592285,-0.4135742,0,0,0,0,0,0
2.329998,0.7700843,-0.8259454,0.5354926,0.9400869,0,0,0,0,0,0,0,0,0,0,0,1,0,0,0,0,0,0.04309082,-0.9080811,-0.3173828,0,0,0,0,0,0
2.339998,0.563032,-0.9863042,0.4167797,0.7456151,0,0,0,0,0,0,0,0,0,0,0,1,0,0,0.1821814,-0.07922018,-0.01599398,0.1173096,-0.9172363,-0.2542725,0,0,0,0,0,0
2.349998,0.4253754,-1,0.3166762,0.5787531,0,0,0,0,0,0,0,0,0,0,0,0,0,0,0,0,0,0.1005859,-0.9622803,-0.1878662,0,0,0,0,0,0
2.359998,0.2722459,-1,0.1256163,0.2775244,0,0,0,0,0,0,0,0,0,0,0,0,0,0,0,0,0,0.05883789,-0.9952393,-0.1778564,0,0,0,0,0,0
2.369998,0.1611441,-1,0,0,0,0,0,0,0,0,0,0,0,0,0,0,0,0,0,0,0,0.04492188,-1.099243,-0.2087402,0,0,0,0,0,0
2.379998,0.08240198,-1,0,0,0,0,0,0,0,0,0,0,0,0,0,0,0,0,0.06947384,0.07172299,0.05772826,-0.02697754,-1.168823,-0.04736328,0,0,0,0,0,0
2.389998,0.05099206,-1,0,0,0,0,0,0,0,0,0,0,0,0,0,0,0,0,0,0,0,-0.04663086,-1.139038,-0.08789063,0,0,0,0,0,0
2.399998,0.035298,-1,0,0,0,0,0,0,0,0,0,0,0,0,0,0,0,0,0,0,0,-0.04174805,-1.13855,-0.1887207,0,0,0,0,0,0
2.409998,0.01960851,-1,0,0,0,0,0,0,0,0,0,0,0,0,0,1,0,0,-0.1391976,0.07647121,0.06972374,-0.07788086,-1.161255,-0.2126465,0,0,0,0,0,0
2.419998,0.01960851,-1,0,0,0,0,0,0,0,0,0,0,0,0,0,1,0,0,0,0,0,-0.1132813,-1.014771,-0.2363281,0,0,0,0,0,0
2.429998,0.01960851,-1,0,0,0,0,0,0,0,0,0,0,0,0,0,1,0,0,0,0,0,-0.04833984,-0.9265137,-0.3405762,0,0,0,0,0,0
2.439998,0.01960851,-1,0,0,0,0,0,0,0,0,0,0,0,0,0,1,0,0,0,0,0,-0.07312012,-0.802002,-0.3946533,0,0,0,0,0,0
2.449998,0.01960851,-1,0,0,0,0,0,0,0,0,0,0,0,0,0,1,0,0,0,0,0,0.06164551,-0.8217773,-0.498291,0,0,0,0,0,0
2.459998,0.01960851,-1,0,0,0,0,0,0,0,0,0,0,0,0,0,1,0,0,0,0,0,-0.008789063,-0.859375,-0.5338135,0,0,0,0,0,0
2.469998,0.01960851,-1,0,0,0,0,0,0,0,0,0,0,0,0,0,1,0,0,0,0,0,-0.03222656,-0.8804932,-0.5332031,0,0,0,0,0,0
2.479998,0.01960851,-1,0,0,0,0,0,0,0,0,0,0,0,0,0,1,0,0,0,0,0,-0.03063965,-0.8422852,-0.3603516,0,0,0,0,0,0
2.489998,0.01960851,-1,0,0,0,0,0,0,0,0,0,0,0,0,0,1,0,0,0.1344494,-0.05298005,0.01149567,0.02734375,-0.9156494,-0.2714844,0,0,0,0,0,0
2.499998,0.01960851,-1,0,0,0,0,0,0,0,0,0,0,0,0,0,1,0,0,0,0,0,0.0690918,-0.9100342,-0.2722168,0,0,0,0,0,0
2.509998,0.01960851,-1,0,0,0,0,0,0,0,0,0,0,0,0,0,0,0,0,0,0,0,-0.01086426,-0.973877,-0.2915039,0,0,0,0,0,0
2.519998,0.01960851,-1,0,0,0,0,0,0,0,0,0,0,0,0,0,0,0,0,0.1896786,0.001499435,0.06947384,-0.009155273,-1.040771,-0.1968994,0,0,0,0,0,0
2.529998,0.01960851,-1,0,0,0,0,0,0,0,0,0,0,0,0,0,0,0,0,0,0,0,-0.06738281,-1.093872,-0.2089844,0,0,0,0,0,0
2.539998,0.01960851,-1,0,0,0,0,0,0,0,0,0,0,0,0,0,0,0,0,0,0,0,-0.1320801,-1.092285,-0.03759766,0,0,0,0,0,0
2.549998,0.01960851,-1,0,0,0,0,0,0,0,0,0,0,0,0,0,0,0,0,0,0,0,-0.1610107,-1.171265,-0.01904297,0,0,0,0,0,0
2.559998,0.01960851,-1,0,0,0,0,0,0,0,0,0,0,0,0,0,0,0,0,0,0,0,-0.1452637,-1.169556,-0.1141357,0,0,0,0,0,0
2.569998,0.01960851,-1,0,0,0,0,0,0,0,0,0,0,0,0,0,1,0,0,0,0,0,-0.08874512,-1.022705,-0.1381836,0,0,0,0,0,0
2.579998,0.01960851,-1,0,0,0,0,0,0,0,0,0,0,0,0,0,1,0,0,-0.177838,0.0168381,-0.02283523,-0.04504395,-0.9541016,-0.2401123,0,0,0,0,0,0
2.589998,0.01960851,-1,-0.008298798,0.06046266,0,0,0,0,0,0,0,0,0,0,0,1,0,0,0,0,0,-0.06567383,-0.8636475,-0.3417969,0,0,0,0,0,0
2.599998,0.01960851,-1,-0.03987555,0.2365949,0,0,0,0,0,0,0,0,0,0,0,1,0,0,0,0,0,0.04138184,-0.6640625,-0.338501,0,0,0,0,0,0
2.609998,0.01176485,-1,-0.06287039,0.2487481,0,0,0,0,0,0,0,0,0,0,0,1,0,0,-0.01574279,-0.06347093,-0.1136979,0.02819824,-0.8963623,-0.4594727,0,0,0,0,0,0
2.619998,0.003921574,-1,-0.07333703,0.2417406,0,0,0,0,0,0,0,0,0,0,0,1,0,0,0,0,0,-0.03222656,-0.930542,-0.477417,0,0,0,0,0,0
2.629998,-0.01960851,-1,-0.04902282,0.1034926,0,0,0,0,0,0,0,0,0,0,0,1,0,0,0,0,0,0.03381348,-0.8812256,-0.331543,0,0,0,0,0,0
2.639998,-0.02745281,-1,0,0,0,0,0,0,0,0,0,0,0,0,0,1,0,0,0.1391862,-0.04872768,0.001499313,0.01049805,-0.954834,-0.206665,0,0,0,0,0,0
2.649998,-0.035298,-1,0,0,0,0,0,0,0,0,0,0,0,0,0,1,0,0,0,0,0,0.02661133,-0.9703369,-0.2077637,0,0,0,0,0,0
2.659998,-0.035298,-1,0,0,0,0,0,0,0,0,0,0,0,0,0,1,0,0,0,0,0,0.002075195,-0.9396973,-0.2215576,0,0,0,0,0,0
2.669998,-0.035298,-1,0,0,0,0,0,0,0,0,0,0,0,0,0,0,0,0,0,0,0,0.001953125,-0.9968262,-0.2370605,0,0,0,0,0,0
2.679998,-0.035298,-1,0,0,0,0,0,0,0,0,0,0,0,0,0,0,0,0,0,0,0,-0.02600098,-1.020752,-0.2315674,0,0,0,0,0,0
2.689998,-0.035298,-1,0,0,0,0,0,0,0,0,0,0,0,0,0,0,0,0,0.02883236,-0.001383953,0.002767907,-0.09606934,-1.016968,-0.1652832,0,0,0,0,0,0
2.699998,-0.035298,-1,0,0,0,0,0,0,0,0,0,0,0,0,0,0,0,0,0,0,0,-0.1643066,-1.052612,-0.1864014,0,0,0,0,0,0
2.709998,-0.04314433,-1,0,0,0,0,0,0,0,0,0,0,0,0,0,0,0,0,0,0,0,-0.1064453,-1.050903,-0.1107178,0,0,0,0,0,0
2.719998,-0.04314433,-1,0,0,0,0,0,0,0,0,0,0,0,0,0,0,0,0,-0.1280157,0.02191259,-0.04082663,-0.1412354,-1.153931,-0.02087402,0,0,0,0,0,0
2.729998,-0.04314433,-1,-0.06992668,0.02605112,0,0,0,0,0,0,0,0,0,0,0,0,0,0,0,0,0,-0.130249,-1.133179,-0.1186523,0,0,0,0,0,0
2.739998,-0.04314433,-1,-0.3356644,0.2141859,0,0,0,0,0,0,0,0,0,0,0,1,0,0,0,0,0,-0.1483154,-1.059692,-0.1280518,0,0,0,0,0,0
2.749998,-0.04314433,-1,-0.6083932,0.517701,0,0,0,0,0,0,0,0,0,0,0,1,0,0,-0.2456575,0.01424464,-0.1117079,0.006103516,-0.8565674,-0.3692627,0,0,0,0,0,0
2.759998,-0.04314433,-1,-0.7431668,0.6959816,0,0,0,0,0,0,0,0,0,0,0,1,0,0,0,0,0,0.02966309,-0.8062744,-0.4300537,0,0,0,0,0,0
2.769998,-0.04314433,-1,-0.8500843,0.7463182,0,0,0,0,0,0,0,0,0,0,0,1,0,0,0,0,0,0.144165,-0.8066406,-0.505249,0,0,0,0,0,0
2.779998,-0.05099206,-1,-0.8712887,0.6803213,0,0,0,0,0,0,0,0,0,0,0,1,0,0,0,0,0,-0.01403809,-0.888916,-0.4210205,0,0,0,0,0,0
2.789998,-0.05099206,-1,-0.9423288,0.5685782,0,0,0,0,0,0,0,0,0,0,0,1,0,0,0,0,0,0.03540039,-0.9493408,-0.4707031,0,0,0,0,0,0
2.799998,-0.06669273,-1,-0.9372766,0.3490277,0,0,0,0,0,0,0,0,0,0,0,1,0,0,0.08021326,-0.07946361,-0.02823707,0.1005859,-0.9628906,-0.3431396,0,0,0,0,0,0
2.809998,-0.07454614,-1,-0.8751109,0.1966108,0,0,0,0,0,0,0,0,0,0,0,1,0,0,0,0,0,0.03112793,-0.9256592,-0.2547607,0,0,0,0,0,0
2.819998,-0.07454614,-1,-0.7878728,-0.02638808,0,0,0,0,0,0,0,0,0,0,0,1,0,0,0,0,0,0.04541016,-0.9451904,-0.2241211,0,0,0,0,0,0
2.829998,-0.07454614,-1,-0.6838719,-0.1959201,0,0,0,0,0,0,0,0,0,0,0,1,0,0,0.1990762,0.004613584,0.07450939,-0.007324219,-1.006714,-0.2351074,0,0,0,0,0,0
2.839998,-0.07454614,-1,-0.6383345,-0.2988734,0,0,0,0,0,0,0,0,0,0,0,0,0,0,0,0,0,-0.003295898,-1.042969,-0.2410889,0,0,0,0,0,0
2.849998,-0.07454614,-1,-0.5698821,-0.3934025,0,0,0,0,0,0,0,0,0,0,0,0,0,0,0,0,0,-0.04736328,-1.029175,-0.2302246,0,0,0,0,0,0
2.859998,-0.07454614,-1,-0.5297795,-0.4128626,0,0,0,0,0,0,0,0,0,0,0,0,0,0,0,0,0,-0.08190918,-1.022949,-0.1420898,0,0,0,0,0,0
2.869998,-0.07454614,-1,-0.4447473,-0.3949356,0,0,0,0,0,0,0,0,0,0,0,0,0,0,0,0,0,-0.09936523,-1.088013,-0.06079102,0,0,0,0,0,0
2.879998,-0.07454614,-1,-0.3119713,-0.2174345,0,0,0,0,0,0,0,0,0,0,0,0,0,0,-0.01599398,0.05173052,0.0507309,-0.0703125,-1.204346,-0.0513916,0,0,0,0,0,0
2.889998,-0.07454614,-1,-0.1495143,-0.04550435,0,0,0,0,0,0,0,0,0,0,0,0,0,0,0,0,0,-0.08703613,-1.126587,-0.145752,0,0,0,0,0,0
2.899998,-0.07454614,-1,-0.006384577,0.003465913,0,0,0,0,0,0,0,0,0,0,0,1,0,0,0,0,0,-0.08984375,-1.033447,-0.2626953,0,0,0,0,0,0
2.909998,-0.09812176,-1,-0.06154599,0.07818004,0,0,0,0,0,0,0,0,0,0,0,1,0,0,-0.09470662,0.03723295,0.03398444,-0.01123047,-1.056274,-0.1517334,0,0,0,0,0,0
2.919998,-0.1059862,-1,-0.1456784,0.1880575,0,0,0,0,0,0,0,0,0,0,0,1,0,0,0,0,0,0.02990723,-0.9017334,-0.2176514,0,0,0,0,0,0
2.929998,-0.1374799,-1,-0.3145248,0.3686366,0,0,0,0,0,0,0,0,0,0,0,1,0,0,0,0,0,-0.009033203,-0.7792969,-0.3188477,0,0,0,0,0,0
2.939998,-0.1532514,-1,-0.5165997,0.4433231,0,0,0,0,0,0,0,0,0,0,0,1,0,0,-0.1394361,-0.02373913,-0.1174462,0.08825684,-0.8079834,-0.4472656,0,0,0,0,0,0
2.949998,-0.1690417,-1,-0.6709262,0.4586557,0,0,0,0,0,0,0,0,0,0,0,1,0,0,0,0,0,0.07116699,-0.8282471,-0.463501,0,0,0,0,0,0
2.959998,-0.1848525,-1,-0.8389513,0.3595506,0,0,0,0,0,0,0,0,0,0,0,1,0,0,0,0,0,0.1098633,-0.848999,-0.4996338,0,0,0,0,0,0
2.969998,-0.1927661,-1,-0.9478477,0.1833286,0,0,0,0,0,0,0,0,0,0,0,1,0,0,0.0002306792,-0.07081853,-0.03944615,0.08605957,-0.8779297,-0.3248291,0,0,0,0,0,0
2.979998,-0.1927661,-1,-1,-0.09812176,0,0,0,0,0,0,0,0,0,0,0,1,0,0,0.111458,-0.02898908,0.021242,0.06677246,-0.9049072,-0.2011719,0,0,0,0,0,0
2.989998,-0.1927661,-1,-1,-0.2244794,0,0,0,0,0,0,0,0,0,0,0,1,0,0,0,0,0,0.04992676,-0.9658203,-0.2348633,0,0,0,0,0,0
2.999998,-0.1927661,-1,-1,-0.3605264,0,0,0,0,0,0,0,0,0,0,0,0,0,0,0,0,0,-0.02172852,-1.039185,-0.2126465,0,0,0,0,0,0
3.009998,-0.1927661,-1,-0.9975828,-0.4570599,0,0,0,0,0,0,0,0,0,0,0,0,0,0,0.08446819,0.007996988,0.05997742,-0.09179688,-1.123901,-0.1497803,0,0,0,0,0,0
3.019998,-0.1927661,-1,-0.9821059,-0.4970172,0,0,0,0,0,0,0,0,0,0,0,0,0,0,0,0,0,-0.1158447,-1.018677,-0.1691895,0,0,0,0,0,0
3.029998,-0.2086106,-1,-0.9731412,-0.4965006,0,0,0,0,0,0,0,0,0,0,0,0,0,0,0,0,0,-0.09179688,-1.115967,-0.1750488,0,0,0,0,0,0
3.039998,-0.2403741,-1,-0.9880918,-0.4484112,0,0,0,0,0,0,0,0,0,0,0,0,0,0,-0.01937706,0.007151056,0.03091102,-0.1309814,-1.096924,-0.05334473,0,0,0,0,0,0
3.049998,-0.2722459,-1,-1,-0.3524597,0,0,0,0,0,0,0,0,0,0,0,0,0,0,0,0,0,-0.07910156,-1.149292,-0.1380615,0,0,0,0,0,0
3.059998,-0.3444016,-1,-1,-0.1532514,0,0,0,0,0,0,0,0,0,0,0,0,0,0,0,0,0,-0.01220703,-0.9451904,-0.2956543,0,0,0,0,0,0
3.069998,-0.4407377,-0.996623,-1,0.04314433,0,0,0,0,0,0,0,0,0,0,0,1,0,0,0,0,0,0.03808594,-0.9937744,-0.3117676,0,0,0,0,0,0
3.079998,-0.5201051,-0.9568346,-1,0.1532514,0,0,0,0,0,0,0,0,0,0,0,1,0,0,0,0,0,0.08325195,-0.8742676,-0.4277344,0,0,0,0,0,0
3.089998,-0.6544335,-0.8606791,-1,0.2324234,0,0,0,0,0,0,0,0,0,0,0,1,0,0,0,0,0,0.0715332,-0.8128662,-0.411499,0,0,0,0,0,0
3.099998,-0.7636887,-0.7399471,-1,0.2562958,0,0,0,0,0,0,0,0,0,0,0,1,0,0,0,0,0,0.005981445,-0.8902588,-0.3076172,0,0,0,0,0,0
3.109998,-0.8096247,-0.6674467,-1,0.2642672,0,0,0,0,0,0,0,0,0,0,0,1,0,0,0,0,0,-0.001708984,-0.9317627,-0.2576904,0,0,0,0,0,0
3.119998,-0.8481457,-0.6035641,-1,0.2882255,0,0,0,0,0,0,0,0,0,0,0,1,0,0,0,0,0,-0.01733398,-1.036865,-0.1645508,0,0,0,0,0,0
3.129997,-0.8620034,-0.5549886,-1,0.3122526,0,0,0,0,0,0,0,0,0,0,0,0,0,0,0.02049228,0.01099586,0.002499059,-0.01696777,-1.040283,-0.1259766,0,0,0,0,0,0
3.139997,-0.8778723,-0.5314474,-1,0.3122526,0,0,0,0,0,0,0,0,0,0,0,0,0,0,0,0,0,0.005615234,-1.046387,-0.1646729,0,0,0,0,0,0
3.149997,-0.8743113,-0.4822434,-1,0.3202776,0,0,0,0,0,0,0,0,0,0,0,0,0,0,0,0,0,-0.05456543,-0.970459,-0.1971436,0,0,0,0,0,0
3.159997,-0.8887572,-0.4345905,-1,0.3202776,0,0,0,0,0,0,0,0,0,0,0,0,0,0,0,0,0,-0.04370117,-0.8652344,-0.2070313,0,0,0,0,0,0
3.169997,-0.9035419,-0.3872322,-1,0.3283107,0,0,0,0,0,0,0,0,0,0,0,0,0,0,0,0,0,-0.04650879,-0.9519043,-0.2611084,0,0,0,0,0,0
3.179997,-0.9196351,-0.356114,-1,0.3283107,0,0,0,0,0,0,0,0,0,0,0,0,0,0,0,0,0,-0.0637207,-0.9346924,-0.2720947,0,0,0,0,0,0
3.189997,-0.9277642,-0.3405716,-1,0.336352,0,0,0,0,0,0,0,0,0,0,0,0,0,0,0,0,0,-0.05810547,-0.9615479,-0.2871094,0,0,0,0,0,0
3.199997,-0.9346844,-0.3011326,-1,0.336352,0,0,0,0,0,0,0,0,0,0,0,0,0,0,0,0,0,-0.07556152,-0.97229,-0.2697754,0,0,0,0,0,0
3.209997,-0.9513477,-0.2701358,-1,0.336352,0,0,0,0,0,0,0,0,0,0,0,0,0,0,0,0,0,-0.07958984,-0.9719238,-0.2731934,0,0,0,0,0,0
3.219997,-0.9597648,-0.2546315,-1,0.3444016,0,0,0,0,0,0,0,0,0,0,0,0,0,0,0,0,0,-0.06921387,-0.9951172,-0.3104248,0,0,0,0,0,0
3.229997,-0.9597648,-0.2546315,-1,0.3444016,0,0,0,0,0,0,0,0,0,0,0,0,0,0,0,0,0,-0.03625488,-1.020508,-0.2989502,0,0,0,0,0,0
3.239997,-0.9597648,-0.2546315,-1,0.3524597,0,0,0,0,0,0,0,0,0,0,0,0,0,0,0.02773956,-0.03873542,-0.02024238,-0.0168457,-1.016235,-0.2811279,0,0,0,0,0,0
3.249997,-0.9597648,-0.2546315,-1,0.3605264,0,0,0,0,0,0,0,0,0,0,0,0,0,0,0,0,0,-0.0007324219,-1.002441,-0.2836914,0,0,0,0,0,0
3.259997,-0.9597648,-0.2546315,-1,0.3686016,0,0,0,0,0,0,0,0,0,0,0,0,0,0,0,0,0,0.00378418,-0.9908447,-0.2554932,0,0,0,0,0,0
3.269997,-0.9597648,-0.2546315,-1,0.3686016,0,0,0,0,0,0,0,0,0,0,0,0,0,0,0.02848695,-0.03273501,-0.01674233,0.01171875,-0.9743652,-0.25,0,0,0,0,0,0
3.279997,-0.9597648,-0.2546315,-1,0.3766855,0,0,0,0,0,0,0,0,0,0,0,0,0,0,0,0,0,0.01135254,-0.9887695,-0.2390137,0,0,0,0,0,0
3.289997,-0.9597648,-0.2546315,-1,0.3847782,0,0,0,0,0,0,0,0,0,0,0,0,0,0,0,0,0,0.01574707,-1.016846,-0.2227783,0,0,0,0,0,0
3.299997,-0.9597648,-0.2546315,-1,0.3847782,0,0,0,0,0,0,0,0,0,0,0,0,0,0,0.01624256,-0.01049519,-0.01474325,0.01049805,-0.9958496,-0.2457275,0,0,0,0,0,0
3.309997,-0.9597648,-0.2546315,-1,0.3928797,0,0,0,0,0,0,0,0,0,0,0,0,0,0,0,0,0,0.005371094,-0.9984131,-0.2469482,0,0,0,0,0,0
3.319997,-0.9685656,-0.2470431,-1,0.3928797,0,0,0,0,0,0,0,0,0,0,0,0,0,0,0,0,0,0.002685547,-0.9884033,-0.2384033,0,0,0,0,0,0
3.329997,-0.9673098,-0.2153929,-1,0.3928797,0,0,0,0,0,0,0,0,0,0,0,0,0,0,0.0004613178,-0.0117636,-0.0168381,-0.002075195,-0.9825439,-0.2463379,0,0,0,0,0,0
3.339997,-0.9759073,-0.1998846,-1,0.3928797,0,0,0,0,0,0,0,0,0,0,0,0,0,0,0,0,0,-0.006103516,-0.9710693,-0.2443848,0,0,0,0,0,0
3.349997,-0.9751315,-0.1762286,-1,0.3928797,0,0,0,0,0,0,0,0,0,0,0,0,0,0,0,0,0,-0.002563477,-0.9802246,-0.2301025,0,0,0,0,0,0
3.359997,-0.9744439,-0.1526237,-1,0.3928797,0,0,0,0,0,0,0,0,0,0,0,0,0,0,-0.002498855,-0.009245765,-0.01599267,0.001220703,-0.9880371,-0.2277832,0,0,0,0,0,0
3.369997,-0.9832366,-0.1371047,-1,0.3928797,0,0,0,0,0,0,0,0,0,0,0,0,0,0,0,0,0,-0.004882813,-0.9835205,-0.2304688,0,0,0,0,0,0
3.379997,-0.9827118,-0.1135404,-1,0.4009901,0,0,0,0,0,0,0,0,0,0,0,0,0,0,0,0,0,-0.003540039,-0.9842529,-0.2285156,0,0,0,0,0,0
3.389997,-0.98216,-0.08217275,-1,0.3928797,0,0,0,0,0,0,0,0,0,0,0,0,0,0,0,0,0,-0.004272461,-0.986084,-0.2293701,0,0,0,0,0,0
3.399997,-0.9911698,-0.06660035,-1,0.3928797,0,0,0,0,0,0,0,0,0,0,0,0,0,0,0,0,0,-0.005737305,-0.9957275,-0.227417,0,0,0,0,0,0
3.409997,-0.9908843,-0.03524885,-1,0.3928797,0,0,0,0,0,0,0,0,0,0,0,0,0,0,0,0,0,-0.01147461,-0.9743652,-0.229126,0,0,0,0,0,0
3.419997,-1,-0.01176485,-1,0.4009901,0,0,0,0,0,0,0,0,0,0,0,0,0,0,0,0,0,-0.006591797,-0.9663086,-0.2392578,0,0,0,0,0,0
3.429997,-1,-0.003921574,-1,0.4009901,0,0,0,0,0,0,0,0,0,0,0,0,0,0,0,0,0,-0.003295898,-0.9622803,-0.2392578,0,0,0,0,0,0
3.439997,-1,0,-1,0.4009901,0,0,0,0,0,0,0,0,0,0,0,0,0,0,0,0,0,-0.0003662109,-0.9641113,-0.2479248,0,0,0,0,0,0
3.449997,-1,0.01176485,-1,0.4009901,0,0,0,0,0,0,0,0,0,0,0,0,0,0,-0.03273501,0.003748283,-0.02673776,0.0009765625,-0.9591064,-0.2520752,0,0,0,0,0,0
3.459997,-1,0.01960851,-1,0.3928797,0,0,0,0,0,0,0,0,0,0,0,0,0,0,0,0,0,0.004638672,-0.9597168,-0.2542725,0,0,0,0,0,0
3.469997,-1,0.01960851,-1,0.4009901,0,0,0,0,0,0,0,0,0,0,0,0,0,0,-0.0129169,0.003229225,-0.02237391,0.01281738,-0.9692383,-0.2579346,0,0,0,0,0,0
3.479997,-1,0.01960851,-1,0.4009901,0,0,0,0,0,0,0,0,0,0,0,0,0,0,0,0,0,0.01281738,-0.9693604,-0.2635498,0,0,0,0,0,0
3.489997,-1,0.02745281,-1,0.4009901,0,0,0,0,0,0,0,0,0,0,0,0,0,0,0,0,0,0.01269531,-0.9761963,-0.2687988,0,0,0,0,0,0
3.499997,-1,0.02745281,-1,0.4009901,0,0,0,0,0,0,0,0,0,0,0,0,0,0,-0.009995421,0.0004997711,-0.01824165,0.01879883,-0.9815674,-0.2636719,0,0,0,0,0,0
3.509997,-1,0.035298,-1,0.4009901,0,0,0,0,0,0,0,0,0,0,0,0,0,0,0,0,0,0.02001953,-0.9815674,-0.2664795,0,0,0,0,0,0
3.519997,-1,0.04314433,-1,0.4009901,0,0,0,0,0,0,0,0,0,0,0,0,0,0,0,0,0,0.02233887,-0.9719238,-0.265625,0,0,0,0,0,0
3.529997,-1,0.04314433,-1,0.4009901,0,0,0,0,0,0,0,0,0,0,0,0,0,0,-0.001749199,-0.0009995422,-0.01074508,0.02648926,-0.9703369,-0.2646484,0,0,0,0,0,0
3.539997,-1,0.05099206,-1,0.4009901,0,0,0,0,0,0,0,0,0,0,0,0,0,0,0,0,0,0.0234375,-0.9620361,-0.2623291,0,0,0,0,0,0
3.549997,-1,0.05099206,-1,0.4009901,0,0,0,0,0,0,0,0,0,0,0,0,0,0,0,0,0,0.03100586,-0.9798584,-0.2398682,0,0,0,0,0,0
3.559997,-1,0.05884144,-1,0.4091095,0,0,0,0,0,0,0,0,0,0,0,0,0,0,0,0,0,0.0333252,-0.9851074,-0.2359619,0,0,0,0,0,0
3.569997,-1,0.06669273,-1,0.4091095,0,0,0,0,0,0,0,0,0,0,0,0,0,0,0,0,0,0.0222168,-0.9863281,-0.2060547,0,0,0,0,0,0
3.579997,-1,0.07454614,-1,0.4091095,0,0,0,0,0,0,0,0,0,0,0,0,0,0,0,0,0,0.02185059,-1.046021,-0.1965332,0,0,0,0,0,0
3.589997,-1,0.09026043,-1,0.4091095,0,0,0,0,0,0,0,0,0,0,0,0,0,0,0,0,0,0.0390625,-1.02478,-0.2351074,0,0,0,0,0,0
3.599997,-1,0.113854,-1,0.4091095,0,0,0,0,0,0,0,0,0,0,0,0,0,0,0,0,0,0.008300781,-0.994751,-0.2364502,0,0,0,0,0,0
3.609997,-1,0.1374799,-1,0.4172379,0,0,0,0,0,0,0,0,0,0,0,1,0,0,-0.04452109,0.02260657,0.005074943,0.03625488,-0.96875,-0.2756348,0,0,0,0,0,0
3.619997,-1,0.1611441,-1,0.4172379,0,0,0,0,0,0,0,0,0,0,0,1,0,0,0,0,0,0.0291748,-0.9416504,-0.2884521,0,0,0,0,0,0
3.629997,-1,0.1769445,-1,0.4172379,0,0,0,0,0,0,0,0,0,0,0,1,0,0,0,0,0,0.03527832,-0.9249268,-0.2950439,0,0,0,0,0,0
3.639997,-1,0.1927661,-1,0.4172379,0,0,0,0,0,0,0,0,0,0,0,1,0,0,0.01049605,0.03148814,-0.003998494,0.02001953,-1.001831,-0.1834717,0,0,0,0,0,0
3.649997,-1,0.2006854,-1,0.4172379,0,0,0,0,0,0,0,0,0,0,0,1,0,0,0,0,0,0.02246094,-0.9255371,-0.2272949,0,0,0,0,0,0
3.659997,-1,0.2165419,-1,0.4172379,0,0,0,0,0,0,0,0,0,0,0,1,0,0,0,0,0,0.0279541,-0.9477539,-0.2573242,0,0,0,0,0,0
3.669997,-1,0.2244794,-1,0.4172379,0,0,0,0,0,0,0,0,0,0,0,1,0,0,0,0,0,0.04431152,-0.954834,-0.2757568,0,0,0,0,0,0
3.679997,-1,0.2324234,-1,0.4172379,0,0,0,0,0,0,0,0,0,0,0,1,0,0,0,0,0,0.04467773,-0.9515381,-0.2810059,0,0,0,0,0,0
3.689997,-1,0.2324234,-1,0.4172379,0,0,0,0,0,0,0,0,0,0,0,1,0,0,0,0,0,0.03161621,-0.9418945,-0.263916,0,0,0,0,0,0
3.699997,-1,0.2403741,-1,0.4172379,0,0,0,0,0,0,0,0,0,0,0,1,0,0,0,0,0,0.04064941,-0.963623,-0.2969971,0,0,0,0,0,0
3.709997,-1,0.2403741,-1,0.4172379,0,0,0,0,0,0,0,0,0,0,0,1,0,0,0,0,0,0.03381348,-0.9675293,-0.2897949,0,0,0,0,0,0
3.719997,-1,0.2483314,-1,0.4172379,0,0,0,0,0,0,0,0,0,0,0,1,0,0,0,0,0,0.03417969,-0.9615479,-0.2871094,0,0,0,0,0,0
3.729997,-1,0.2562958,-1,0.4172379,0,0,0,0,0,0,0,0,0,0,0,1,0,0,0.01974257,-0.006997366,0.0002499059,0.03210449,-0.9711914,-0.2764893,0,0,0,0,0,0
3.739997,-1,0.2642672,-1,0.4172379,0,0,0,0,0,0,0,0,0,0,0,1,0,0,0,0,0,0.03283691,-0.9820557,-0.2672119,0,0,0,0,0,0
3.749997,-1,0.2802319,-1,0.4172379,0,0,0,0,0,0,0,0,0,0,0,1,0,0,0,0,0,0.03137207,-0.9984131,-0.2644043,0,0,0,0,0,0
3.759997,-1,0.2962267,-1,0.4172379,0,0,0,0,0,0,0,0,0,0,0,1,0,0,0.02237589,0.009227169,0,0.03588867,-1.012573,-0.2680664,0,0,0,0,0,0
3.769997,-1,0.2962267,-1,0.4253754,0,0,0,0,0,0,0,0,0,0,0,1,0,0,0,0,0,0.03271484,-1.010376,-0.2706299,0,0,0,0,0,0
3.779997,-1,0.3122526,-1,0.4253754,0,0,0,0,0,0,0,0,0,0,0,1,0,0,0,0,0,0.03942871,-1.013916,-0.2883301,0,0,0,0,0,0
3.789997,-1,0.336352,-1,0.433522,0,0,0,0,0,0,0,0,0,0,0,1,0,0,0.03073842,-0.0002499059,0.00674746,0.03747559,-0.9957275,-0.2954102,0,0,0,0,0,0
3.799997,-1,0.3444016,-1,0.4498426,0,0,0,0,0,0,0,0,0,0,0,1,0,0,0,0,0,0.03625488,-1.000244,-0.2781982,0,0,0,0,0,0
3.809997,-1,0.3686016,-1,0.4825947,0,0,0,0,0,0,0,0,0,0,0,1,0,0,0,0,0,0.03149414,-1.002319,-0.2486572,0,0,0,0,0,0
3.819997,-1,0.4009901,-1,0.523744,0,0,0,0,0,0,0,0,0,0,0,1,0,0,0.04923147,-0.006497554,0.02998871,0.03845215,-0.9975586,-0.2530518,0,0,0,0,0,0
3.829997,-1,0.433522,-1,0.5651261,0,0,0,0,0,0,0,0,0,0,0,1,0,0,0,0,0,0.0501709,-0.9926758,-0.2314453,0,0,0,0,0,0
3.839997,-0.9915852,0.5057483,-0.9973595,0.5968135,0,0,0,0,0,0,0,0,0,0,0,1,0,0,0,0,0,0.07214355,-0.9649658,-0.1975098,0,0,0,0,0,0
3.849997,-0.9601151,0.5696949,-0.9728824,0.6285701,0,0,0,0,0,0,0,0,0,0,0,1,0,0,0.05097562,0.01014899,0.06135527,0.07641602,-0.9455566,-0.1739502,0,0,0,0,0,0
3.859997,-0.8420238,0.7542298,-0.91571,0.691781,0,0,0,0,0,0,0,0,0,0,0,1,0,0,0.07896384,0.03098581,0.08071303,0.07055664,-0.9064941,-0.1588135,0,0,0,0,0,0
3.869997,-0.772543,0.8606049,-0.8836871,0.731741,0,0,0,0,0,0,0,0,0,0,0,1,0,0,0,0,0,0.03039551,-0.911377,-0.1386719,0,0,0,0,0,0
3.879997,-0.6291237,0.9817535,-0.8191673,0.7951917,0,0,0,0,0,0,0,0,0,0,0,1,0,0,0,0,0,0.01074219,-0.9190674,-0.1712646,0,0,0,0,0,0
3.889997,-0.4990265,1,-0.7542298,0.8420238,0,0,0,0,0,0,0,0,0,0,0,1,0,0,0,0,0,-0.006225586,-0.9498291,-0.1835938,0,0,0,0,0,0
3.899997,-0.2962267,1,-0.6502753,0.9215559,0,0,0,0,0,0,0,0,0,0,0,1,0,0,0,0,0,-0.07067871,-1.014526,-0.196167,0,0,0,0,0,0
3.909997,-0.1611441,1,-0.5216986,0.9836607,0,0,0,0,0,0,0,0,0,0,0,1,0,0,-0.04198362,0.02975762,-0.01245668,-0.07617188,-1.085327,-0.2286377,0,0,0,0,0,0
3.919997,-0.09026043,1,-0.3928797,1,0,0,0,0,0,0,0,0,0,0,0,1,0,0,0,0,0,-0.07910156,-1.098511,-0.2751465,0,0,0,0,0,0
3.929997,-0.01960851,1,-0.1374799,1,0,0,0,0,0,0,0,0,0,0,0,1,0,0,0,0,0,-0.1096191,-1.091553,-0.1657715,0,0,0,0,0,0
3.939997,0.035298,1,0.1217254,1,0,0,0,0,0,0,0,0,0,0,0,1,0,0,-0.1721711,0.03748283,-0.02223982,-0.04980469,-1.031006,-0.175415,0,0,0,0,0,0
3.949997,0.07454614,1,0.2562958,1,0,0,0,0,0,0,0,0,0,0,0,1,0,0,0,0,0,-0.004272461,-1.001465,-0.2324219,0,0,0,0,0,0
3.959997,0.1217254,1,0.4253754,1,0,0,0,0,0,0,0,0,0,0,0,1,0,0,0,0,0,-0.0006103516,-0.9967041,-0.2490234,0,0,0,0,0,0
3.969997,0.1532514,1,0.5713281,0.9868394,0,0,0,0,0,0,0,0,0,0,0,1,0,0,-0.06347093,0.04023157,-0.03898215,-0.0435791,-1.001343,-0.213623,0,0,0,0,0,0
3.979997,0.1690417,1,0.631721,0.8939448,0,0,0,0,0,0,0,0,0,0,0,1,0,0,0,0,0,-0.03173828,-0.9381104,-0.2438965,0,0,0,0,0,0
3.989997,0.1927661,1,0.6471747,0.6626759,0,0,0,0,0,0,0,0,0,0,0,1,0,0,0,0,0,0.006103516,-0.9407959,-0.2554932,0,0,0,0,0,0
3.999997,0.2165419,1,0.6378216,0.4717615,0,0,0,0,0,0,0,0,0,0,0,1,0,0,-0.006247139,0.02898672,-0.03448421,-0.02319336,-0.9454346,-0.2781982,0,0,0,0,0,0
4.009997,0.2483314,1,0.6213017,0.3051363,0,0,0,0,0,0,0,0,0,0,0,1,0,0,-0.01449454,0.01999247,-0.02499059,-0.003540039,-0.9492188,-0.2874756,0,0,0,0,0,0
4.019997,0.2642672,1,0.6149921,0.2365354,0,0,0,0,0,0,0,0,0,0,0,1,0,0,0,0,0,0.004760742,-0.9685059,-0.2735596,0,0,0,0,0,0
4.029997,0.2962267,1,0.6113158,0.1917144,0,0,0,0,0,0,0,0,0,0,0,1,0,0,0,0,0,0.02856445,-0.9348145,-0.2695313,0,0,0,0,0,0
4.039998,0.3202776,1,0.6102099,0.1769248,0,0,0,0,0,0,0,0,0,0,0,1,0,0,-0.03698608,0.006247648,-0.01124577,0.04077148,-0.9512939,-0.2762451,0,0,0,0,0,0
4.049998,0.3202776,1,0.6011409,0.1763826,0,0,0,0,0,0,0,0,0,0,0,1,0,0,0,0,0,0.03271484,-0.949707,-0.289917,0,0,0,0,0,0
4.059998,0.3283107,1,0.5468467,0.1728741,0,0,0,0,0,0,0,0,0,0,0,1,0,0,0,0,0,0.03466797,-0.958374,-0.3048096,0,0,0,0,0,0
4.069998,0.3283107,1,0.4319249,0.1774575,0,0,0,0,0,0,0,0,0,0,0,1,0,0,-0.01153396,-0.01245668,0.00322951,0.05541992,-0.9693604,-0.2819824,0,0,0,0,0,0
4.079998,0.3283107,1,0.3719145,0.2336808,0,0,0,0,0,0,0,0,0,0,0,1,0,0,0,0,0,0.04211426,-0.9597168,-0.2746582,0,0,0,0,0,0
4.089999,0.3202776,1,0.3528908,0.4227702,0,0,0,0,0,0,0,0,0,0,0,1,0,0,0,0,0,0.03283691,-0.920166,-0.284668,0,0,0,0,0,0
4.099999,0.3122526,1,0.3713532,0.5846055,0,0,0,0,0,0,0,0,0,0,0,1,0,0,0,0,0,0.02709961,-0.9373779,-0.2814941,0,0,0,0,0,0
4.109999,0.2962267,1,0.3903656,0.8232463,0,0,0,0,0,0,0,0,0,0,0,1,0,0,0,0,0,0.05090332,-0.9715576,-0.2714844,0,0,0,0,0,0
4.119999,0.2483314,1,0.4009901,1,0,0,0,0,0,0,0,0,0,0,0,1,0,0,-0.00549793,-0.009996235,-0.006497554,0.04956055,-0.9733887,-0.2718506,0,0,0,0,0,0
4.13,0.2086106,1,0.3766855,1,0,0,0,0,0,0,0,0,0,0,0,1,0,0,0,0,0,0.07543945,-0.9311523,-0.2923584,0,0,0,0,0,0
4.14,0.1532514,1,0.3283107,1,0,0,0,0,0,0,0,0,0,0,0,1,0,0,0,0,0,0.06665039,-1.001343,-0.2279053,0,0,0,0,0,0
4.15,0.09812176,1,0.2882255,1,0,0,0,0,0,0,0,0,0,0,0,1,0,0,0.01824313,0.003498683,0.007497177,0.02258301,-1.001465,-0.2331543,0,0,0,0,0,0
4.16,0.06669273,1,0.2802319,1,0,0,0,0,0,0,0,0,0,0,0,1,0,0,0,0,0,0.01940918,-1.040039,-0.2132568,0,0,0,0,0,0
4.170001,0.02745281,1,0.2722459,1,0,0,0,0,0,0,0,0,0,0,0,1,0,0,0,0,0,0.007446289,-1.084229,-0.203125,0,0,0,0,0,0
4.180001,0.003921574,1,0.2882255,1,0,0,0,0,0,0,0,0,0,0,0,1,0,0,-0.03048604,0.002498855,0.01874142,-0.01159668,-1.033936,-0.2281494,0,0,0,0,0,0
4.190001,-0.01176485,1,0.3034922,0.9893057,0,0,0,0,0,0,0,0,0,0,0,1,0,0,0,0,0,-0.00793457,-1.000366,-0.2142334,0,0,0,0,0,0
4.200001,-0.01176485,1,0.3256744,0.800776,0,0,0,0,0,0,0,0,0,0,0,1,0,0,0,0,0,-0.03491211,-0.9798584,-0.2023926,0,0,0,0,0,0
4.210001,-0.01176485,1,0.3541003,0.65229,0,0,0,0,0,0,0,0,0,0,0,1,0,0,0,0,0,-0.05249023,-0.9387207,-0.21875,0,0,0,0,0,0
4.220002,0.003921574,1,0.3858429,0.4354007,0,0,0,0,0,0,0,0,0,0,0,1,0,0,0,0,0,-0.04736328,-0.9143066,-0.2294922,0,0,0,0,0,0
4.230002,0.05099206,1,0.3866536,0.221417,0,0,0,0,0,0,0,0,0,0,0,1,0,0,0,0,0,-0.02392578,-0.8841553,-0.2646484,0,0,0,0,0,0
4.240002,0.09026043,1,0.4047964,0.09391275,0,0,0,0,0,0,0,0,0,0,0,1,0,0,0,0,0,-0.01989746,-0.9012451,-0.2608643,0,0,0,0,0,0
4.250002,0.1611441,1,0.4750387,-0.05053603,0,0,0,0,0,0,0,0,0,0,0,1,0,0,0,0,0,0.01013184,-0.9047852,-0.2810059,0,0,0,0,0,0
4.260003,0.2562958,1,0.5751695,-0.1893415,0,0,0,0,0,0,0,0,0,0,0,1,0,0,0,0,0,0.02929688,-0.9088135,-0.2867432,0,0,0,0,0,0
4.270003,0.3122526,1,0.6451797,-0.2765056,0,0,0,0,0,0,0,0,0,0,0,1,0,0,0,0,0,0.03186035,-0.9133301,-0.274292,0,0,0,0,0,0
4.280003,0.3928797,1,0.7170182,-0.390756,0,0,0,0,0,0,0,0,0,0,0,1,0,0,0,0,0,0.04968262,-0.9334717,-0.2697754,0,0,0,0,0,0
4.290003,0.433522,1,0.7761463,-0.4672323,0,0,0,0,0,0,0,0,0,0,0,1,0,0,0.07746452,0.03823249,0.03148558,0.04797363,-0.9761963,-0.2884521,0,0,0,0,0,0
4.300004,0.4498426,1,0.7957745,-0.492992,0,0,0,0,0,0,0,0,0,0,0,1,0,0,0,0,0,0.04101563,-0.9866943,-0.2836914,0,0,0,0,0,0
4.310004,0.4498426,1,0.8222761,-0.4949245,0,0,0,0,0,0,0,0,0,0,0,1,0,0,0,0,0,0.05480957,-1.019165,-0.2770996,0,0,0,0,0,0
4.320004,0.4498426,1,0.8311262,-0.4955541,0,0,0,0,0,0,0,0,0,0,0,1,0,0,0,0,0,0.05834961,-1.023926,-0.2845459,0,0,0,0,0,0
4.330004,0.4498426,1,0.8203865,-0.4704586,0,0,0,0,0,0,0,0,0,0,0,1,0,0,0,0,0,0.03479004,-1.030518,-0.2817383,0,0,0,0,0,0
4.340004,0.4172379,1,0.7856765,-0.364094,0,0,0,0,0,0,0,0,0,0,0,1,0,0,0.008073061,-0.005766472,0.02260457,0.02380371,-1.039551,-0.2897949,0,0,0,0,0,0
4.350005,0.3928797,1,0.7265195,-0.2898549,0,0,0,0,0,0,0,0,0,0,0,1,0,0,0,0,0,0.02685547,-1.047485,-0.2878418,0,0,0,0,0,0
4.360005,0.3444016,1,0.6091713,-0.1622054,0,0,0,0,0,0,0,0,0,0,0,1,0,0,0,0,0,0.03344727,-1.046997,-0.2891846,0,0,0,0,0,0
4.370005,0.3042357,1,0.4471794,-0.04306171,0,0,0,0,0,0,0,0,0,0,0,1,0,0,-0.02473867,-0.02149016,0.01199451,0.03820801,-1.018799,-0.2835693,0,0,0,0,0,0
4.380005,0.2802319,1,0.3356401,0,0,0,0,0,0,0,0,0,0,0,0,1,0,0,0,0,0,0.04528809,-1.001099,-0.2747803,0,0,0,0,0,0
4.390006,0.2483314,1,0.1988369,0.02700255,0,0,0,0,0,0,0,0,0,0,0,1,0,0,0,0,0,0.03662109,-0.9857178,-0.2614746,0,0,0,0,0,0
4.400006,0.2165419,1,0.09092321,0.02073687,0,0,0,0,0,0,0,0,0,0,0,1,0,0,0.004997711,-0.005497482,0.008246223,0.02270508,-1.002319,-0.2473145,0,0,0,0,0,0
4.410006,0.2006854,1,0.04675537,0.01293234,0,0,0,0,0,0,0,0,0,0,0,1,0,0,0,0,0,0.0009765625,-1.011597,-0.2208252,0,0,0,0,0,0
4.420006,0.1927661,1,0.02946557,0.008908195,0,0,0,0,0,0,0,0,0,0,0,1,0,0,0,0,0,0.008422852,-0.9869385,-0.2286377,0,0,0,0,0,0
4.430007,0.1927661,1,0.02946557,0.008908195,0,0,0,0,0,0,0,0,0,0,0,1,0,0,0,0,0,0.01000977,-0.9776611,-0.2381592,0,0,0,0,0,0
4.440007,0.1927661,1,0.05549721,0.01472375,0,0,0,0,0,0,0,0,0,0,0,1,0,0,0,0,0,0.007080078,-0.9821777,-0.2442627,0,0,0,0,0,0
4.450007,0.1927661,1,0.1202808,0.03245672,0,0,0,0,0,0,0,0,0,0,0,1,0,0,0,0,0,0.001098633,-0.9707031,-0.2480469,0,0,0,0,0,0
4.460007,0.1927661,1,0.1393359,0.03951317,0,0,0,0,0,0,0,0,0,0,0,1,0,0,0,0,0,0.01391602,-0.9622803,-0.244873,0,0,0,0,0,0
4.470007,0.2006854,1,0.1760859,0.04930407,0,0,0,0,0,0,0,0,0,0,0,1,0,0,0,0,0,0.02832031,-0.960083,-0.2475586,0,0,0,0,0,0
4.480008,0.2165419,1,0.1939274,0.05155031,0,0,0,0,0,0,0,0,0,0,0,1,0,0,0.003690868,-0.01153396,-0.0110726,0.02807617,-0.947876,-0.2692871,0,0,0,0,0,0
4.490008,0.2165419,1,0.1939274,0.05155031,0,0,0,0,0,0,0,0,0,0,0,1,0,0,0,0,0,0.0411377,-0.9425049,-0.2883301,0,0,0,0,0,0
4.500008,0.2165419,1,0.1939274,0.05155031,0,0,0,0,0,0,0,0,0,0,0,1,0,0,0,0,0,0.07788086,-0.911499,-0.3400879,0,0,0,0,0,0
4.510008,0.2165419,1,0.1939274,0.05155031,0,0,0,0,0,0,0,0,0,0,0,1,0,0,0,0,0,0.05700684,-0.9241943,-0.3148193,0,0,0,0,0,0
4.520009,0.1848525,1,0.1495143,0.04550435,0,0,0,0,0,0,0,0,0,0,0,1,0,0,0,0,0,-0.01171875,-0.921875,-0.1550293,0,0,0,0,0,0
4.530009,0.1296006,1,0.01008673,0.002844975,0,0,0,0,0,0,0,0,0,0,0,1,0,0,0.07121738,-0.02149016,0.0002498855,0.04797363,-0.9677734,-0.2485352,0,0,0,0,0,0
4.540009,0.1059862,1,0,0,0,0,0,0,0,0,0,0,0,0,0,1,0,0,0,0,0,0.05126953,-1.044189,-0.237793,0,0,0,0,0,0
4.550009,0.06669273,1,0,0,0,0,0,0,0,0,0,0,0,0,0,0,0,0,0,0,0,0.01464844,-1.01416,-0.2183838,0,0,0,0,0,0
4.560009,0.02745281,1,0,0,0,0,0,0,0,0,0,0,0,0,0,0,0,0,0,0,0,0.02368164,-1.155884,-0.229126,0,0,0,0,0,0
4.57001,0.01176485,1,0,0,0,0,0,0,0,0,0,0,0,0,0,0,0,0,0,0,0,-0.04992676,-0.9093018,-0.1574707,0,0,0,0,0,0
4.58001,-0.01176485,1,0,0,0,0,0,0,0,0,0,0,0,0,0,0,0,0,0,0,0,-0.02563477,-0.9729004,-0.1939697,0,0,0,0,0,0
4.59001,-0.01176485,1,0,0,0,0,0,0,0,0,0,0,0,0,0,0,0,0,0.004844264,-0.005305622,0.02698947,-0.01574707,-0.9885254,-0.2171631,0,0,0,0,0,0
4.60001,-0.01176485,1,0,0,0,0,0,0,0,0,0,0,0,0,0,0,0,0,0,0,0,-0.015625,-0.9903564,-0.178833,0,0,0,0,0,0
4.610011,-0.01176485,1,0,0,0,0,0,0,0,0,0,0,0,0,0,0,0,0,0,0,0,-0.0567627,-1.087646,-0.08703613,0,0,0,0,0,0
4.620011,0.003921574,1,0,0,0,0,0,0,0,0,0,0,0,0,0,0,0,0,0,0,0,-0.04638672,-1.127197,-0.09765625,0,0,0,0,0,0
4.630011,0.035298,1,0,0,0,0,0,0,0,0,0,0,0,0,0,1,0,0,0,0,0,-0.07543945,-1.021362,-0.08825684,0,0,0,0,0,0
4.640011,0.06669273,1,0,0,0,0,0,0,0,0,0,0,0,0,0,1,0,0,0,0,0,-0.08520508,-0.8166504,-0.04260254,0,0,0,0,0,0
4.650012,0.08240198,1,0,0,0,0,0,0,0,0,0,0,0,0,0,1,0,0,0,0,0,-0.001464844,-0.9273682,-0.2811279,0,0,0,0,0,0
4.660012,0.1059862,1,0,0,0,0,0,0,0,0,0,0,0,0,0,1,0,0,0,0,0,0.1221924,-0.8856201,-0.4805908,0,0,0,0,0,0
4.670012,0.1296006,1,0,0,0,0,0,0,0,0,0,0,0,0,0,1,0,0,0.02348924,-0.04622883,-0.0189913,0.05700684,-0.9262695,-0.3226318,0,0,0,0,0,0
4.680012,0.1453634,1,0,0,0,0,0,0,0,0,0,0,0,0,0,1,0,0,0,0,0,0.08764648,-0.9577637,-0.3254395,0,0,0,0,0,0
4.690012,0.1848525,1,0,0,0,0,0,0,0,0,0,0,0,0,0,1,0,0,0,0,0,0.1022949,-0.9290771,-0.3587646,0,0,0,0,0,0
4.700013,0.2086106,1,0,0,0,0,0,0,0,0,0,0,0,0,0,1,0,0,0,0,0,0.08422852,-0.9226074,-0.300415,0,0,0,0,0,0
4.710013,0.2086106,1,0,0,0,0,0,0,0,0,0,0,0,0,0,1,0,0,0,0,0,0.1166992,-0.9117432,-0.3283691,0,0,0,0,0,0
4.720013,0.2086106,1,0,0,0,0,0,0,0,0,0,0,0,0,0,1,0,0,0.08049995,-0.02698709,0.008765038,0.07263184,-0.864502,-0.244873,0,0,0,0,0,0
4.730013,0.2086106,1,0.029689,-0.03543526,0,0,0,0,0,0,0,0,0,0,0,1,0,0,0,0,0,0.03686523,-0.9481201,-0.2445068,0,0,0,0,0,0
4.740014,0.1848525,1,0.1027414,-0.1829298,0,0,0,0,0,0,0,0,0,0,0,1,0,0,0,0,0,0.02038574,-1.073975,-0.2070313,0,0,0,0,0,0
4.750014,0.1217254,1,0.1548005,-0.3506705,0,0,0,0,0,0,0,0,0,0,0,0,0,0,0.1284412,0.03298489,0.06896842,-0.02416992,-1.075928,-0.1434326,0,0,0,0,0,0
4.760014,0.08240198,1,0.1863108,-0.4505334,0,0,0,0,0,0,0,0,0,0,0,0,0,0,0.1039609,0.03848551,0.07222281,-0.03051758,-1.044067,-0.1828613,0,0,0,0,0,0
4.770014,0.01176485,1,0.2338198,-0.5791535,0,0,0,0,0,0,0,0,0,0,0,0,0,0,0,0,0,-0.04797363,-1.047729,-0.2059326,0,0,0,0,0,0
4.780015,-0.06669273,1,0.2995769,-0.6472341,0,0,0,0,0,0,0,0,0,0,0,0,0,0,0,0,0,-0.09179688,-1.026611,-0.1463623,0,0,0,0,0,0
4.790015,-0.1059862,1,0.3484161,-0.6781002,0,0,0,0,0,0,0,0,0,0,0,0,0,0,0,0,0,-0.114502,-1.066772,-0.1195068,0,0,0,0,0,0
4.800015,-0.1690417,1,0.3886453,-0.6905057,0,0,0,0,0,0,0,0,0,0,0,0,0,0,0,0,0,-0.123291,-1.069092,-0.1324463,0,0,0,0,0,0
4.810015,-0.2244794,1,0.4351793,-0.677366,0,0,0,0,0,0,0,0,0,0,0,0,0,0,-0.08021326,-0.002498855,-0.02398901,-0.1311035,-1.035889,-0.09558105,0,0,0,0,0,0
4.820015,-0.2562958,1,0.4848112,-0.6050744,0,0,0,0,0,0,0,0,0,0,0,1,0,0,0,0,0,-0.119873,-1.011353,-0.09265137,0,0,0,0,0,0
4.830016,-0.2882255,1,0.5657016,-0.4325953,0,0,0,0,0,0,0,0,0,0,0,1,0,0,0,0,0,-0.04956055,-0.9593506,-0.2150879,0,0,0,0,0,0
4.840016,-0.3283107,1,0.6342404,-0.252963,0,0,0,0,0,0,0,0,0,0,0,1,0,0,-0.1291908,-0.01574279,-0.1219442,-0.02355957,-0.9022217,-0.3371582,0,0,0,0,0,0
4.850016,-0.3444016,1,0.6642575,-0.1724867,0,0,0,0,0,0,0,0,0,0,0,1,0,0,0,0,0,0.06115723,-0.9321289,-0.3469238,0,0,0,0,0,0
4.860016,-0.3766855,1,0.6889598,-0.1215811,0,0,0,0,0,0,0,0,0,0,0,1,0,0,0,0,0,0.00402832,-0.9492188,-0.263916,0,0,0,0,0,0
4.870017,-0.4172379,1,0.7064662,-0.09986695,0,0,0,0,0,0,0,0,0,0,0,1,0,0,-0.03367917,-0.03321781,-0.06136068,0.04589844,-0.9932861,-0.2536621,0,0,0,0,0,0
4.880017,-0.4416777,1,0.7338147,-0.09312369,0,0,0,0,0,0,0,0,0,0,0,1,0,0,0,0,0,0.03015137,-0.9980469,-0.2302246,0,0,0,0,0,0
4.890017,-0.4743927,1,0.8072483,-0.08716766,0,0,0,0,0,0,0,0,0,0,0,1,0,0,0,0,0,0.05810547,-0.970459,-0.2547607,0,0,0,0,0,0
4.900017,-0.4980331,1,0.9454219,-0.08948438,0,0,0,0,0,0,0,0,0,0,0,1,0,0,0,0,0,0.04968262,-0.958252,-0.2576904,0,0,0,0,0,0
4.910017,-0.5139784,0.9920977,1,-0.09026043,0,0,0,0,0,0,0,0,0,0,0,1,0,0,0,0,0,0.02075195,-0.9416504,-0.2557373,0,0,0,0,0,0
4.920018,-0.5382023,0.9847108,1,-0.113854,0,0,0,0,0,0,0,0,0,0,0,1,0,0,0,0,0,0.04711914,-0.9532471,-0.2403564,0,0,0,0,0,0
4.930018,-0.5542106,0.976846,1,-0.1296006,0,0,0,0,0,0,0,0,0,0,0,1,0,0,0,0,0,0.02539063,-0.9787598,-0.2106934,0,0,0,0,0,0
4.940018,-0.55367,0.9679267,1,-0.1374799,0,0,0,0,0,0,0,0,0,0,0,1,0,0,0,0,0,0.03063965,-0.9812012,-0.2386475,0,0,0,0,0,0
4.950018,-0.5619524,0.9684711,1,-0.1532514,0,0,0,0,0,0,0,0,0,0,0,1,0,0,0,0,0,0.01855469,-1.000366,-0.2814941,0,0,0,0,0,0
4.960019,-0.5619524,0.9684711,1,-0.1611441,0,0,0,0,0,0,0,0,0,0,0,1,0,0,-0.01999247,-0.002499059,-0.01924275,0.03271484,-1.023682,-0.2727051,0,0,0,0,0,0
4.970019,-0.5702448,0.9690174,1,-0.1611441,0,0,0,0,0,0,0,0,0,0,0,1,0,0,0,0,0,0.03491211,-1.020996,-0.2647705,0,0,0,0,0,0
4.980019,-0.5702448,0.9690174,1,-0.1690417,0,0,0,0,0,0,0,0,0,0,0,1,0,0,0,0,0,0.0201416,-1.025757,-0.270752,0,0,0,0,0,0
4.990019,-0.5702448,0.9690174,1,-0.1769445,0,0,0,0,0,0,0,0,0,0,0,1,0,0,-0.02798946,-0.01599398,0.004998118,0.01867676,-1.025146,-0.2834473,0,0,0,0,0,0
5.00002,-0.5785473,0.9695654,1,-0.1769445,0,0,0,0,0,0,0,0,0,0,0,1,0,0,0,0,0,0.02624512,-1.00415,-0.2828369,0,0,0,0,0,0
5.01002,-0.5785473,0.9695654,1,-0.1848525,0,0,0,0,0,0,0,0,0,0,0,1,0,0,0,0,0,0.04931641,-0.9848633,-0.2816162,0,0,0,0,0,0
5.02002,-0.5785473,0.9695654,1,-0.1848525,0,0,0,0,0,0,0,0,0,0,0,1,0,0,0,0,0,0.05627441,-0.979126,-0.2585449,0,0,0,0,0,0
5.03002,-0.5785473,0.9695654,1,-0.1848525,0,0,0,0,0,0,0,0,0,0,0,1,0,0,0,0,0,0.06115723,-0.9748535,-0.2381592,0,0,0,0,0,0
5.04002,-0.5785473,0.9695654,1,-0.1848525,0,0,0,0,0,0,0,0,0,0,0,1,0,0,0,0,0,0.05310059,-0.9888916,-0.2409668,0,0,0,0,0,0
5.050021,-0.5785473,0.9695654,1,-0.1848525,0,0,0,0,0,0,0,0,0,0,0,1,0,0,0,0,0,0.0435791,-0.9958496,-0.2227783,0,0,0,0,0,0
5.060021,-0.5785473,0.9695654,0.920326,-0.1825119,0,0,0,0,0,0,0,0,0,0,0,1,0,0,0,0,0,-0.001098633,-0.987915,-0.2070313,0,0,0,0,0,0
5.070021,-0.5785473,0.9695654,0.6824807,-0.173387,0,0,0,0,0,0,0,0,0,0,0,1,0,0,0,0,0,-0.0006103516,-0.9736328,-0.229126,0,0,0,0,0,0
5.080021,-0.5779957,0.9606686,0.4991609,-0.141142,0,0,0,0,0,0,0,0,0,0,0,1,0,0,0,0,0,-0.001464844,-0.9693604,-0.223999,0,0,0,0,0,0
5.090022,-0.5946276,0.9617803,0.2163351,-0.07558697,0,0,0,0,0,0,0,0,0,0,0,1,0,0,0,0,0,0.01550293,-0.9519043,-0.2286377,0,0,0,0,0,0
5.100022,-0.6101702,0.9451655,0,0,0,0,0,0,0,0,0,0,0,0,0,1,0,0,-0.03898215,0,-0.04372997,0.02734375,-0.9825439,-0.2175293,0,0,0,0,0,0
5.110022,-0.6185194,0.9457361,0,0,0,0,0,0,0,0,0,0,0,0,0,1,0,0,0,0,0,0.06518555,-0.956665,-0.2583008,0,0,0,0,0,0
5.120022,-0.625725,0.9286237,0,0,0,0,0,0,0,0,0,0,0,0,0,1,0,0,0,0,0,0.0222168,-0.96875,-0.2387695,0,0,0,0,0,0
5.130023,-0.6251402,0.9197923,-0.03114187,0,0,0,0,0,0,0,0,0,0,0,0,1,0,0,0,0,0,0.02331543,-0.9577637,-0.2213135,0,0,0,0,0,0
5.140023,-0.6329178,0.9115608,-0.1418685,0,0,0,0,0,0,0,0,0,0,0,0,1,0,0,0,0,0,0.01403809,-0.9552002,-0.2315674,0,0,0,0,0,0
5.150023,-0.6412961,0.9121541,-0.3079585,0,0,0,0,0,0,0,0,0,0,0,0,1,0,0,0,0,0,0.01489258,-0.9412842,-0.2346191,0,0,0,0,0,0
5.160023,-0.6407002,0.9033475,-0.4925029,0,0,0,0,0,0,0,0,0,0,0,0,1,0,0,0.004613584,-0.005766981,0.02145317,0.01342773,-0.9389648,-0.2333984,0,0,0,0,0,0
5.170023,-0.6407002,0.9033475,-0.621684,0,0,0,0,0,0,0,0,0,0,0,0,1,0,0,0,0,0,0.0078125,-0.9378662,-0.241333,0,0,0,0,0,0
5.180024,-0.649089,0.9039459,-0.7878245,-0.01884747,0,0,0,0,0,0,0,0,0,0,0,1,0,0,0,0,0,0.00402832,-0.9644775,-0.2478027,0,0,0,0,0,0
5.190024,-0.649089,0.9039459,-0.8894072,-0.03465223,0,0,0,0,0,0,0,0,0,0,0,1,0,0,0.004248401,-0.002249153,0.007747083,0.001953125,-0.9633789,-0.2373047,0,0,0,0,0,0
5.200024,-0.649089,0.9039459,-0.9264427,-0.05039228,0,0,0,0,0,0,0,0,0,0,0,1,0,0,0,0,0,0.0135498,-0.9747314,-0.2391357,0,0,0,0,0,0
5.210024,-0.649089,0.9039459,-0.9543922,-0.07401409,0,0,0,0,0,0,0,0,0,0,0,1,0,0,0,0,0,0.002929688,-0.9916992,-0.2485352,0,0,0,0,0,0
5.220025,-0.649089,0.9039459,-0.9547756,-0.09742608,0,0,0,0,0,0,0,0,0,0,0,1,0,0,0.01199548,0.007497177,0.001249529,-0.01269531,-1.004883,-0.255127,0,0,0,0,0,0
5.230025,-0.649089,0.9039459,-0.9550873,-0.1130512,0,0,0,0,0,0,0,0,0,0,0,1,0,0,0,0,0,-0.006713867,-1.013672,-0.2572021,0,0,0,0,0,0
5.240025,-0.649089,0.9039459,-0.8724418,-0.119144,0,0,0,0,0,0,0,0,0,0,0,1,0,0,0,0,0,0.006591797,-1.017578,-0.2612305,0,0,0,0,0,0
5.250025,-0.649089,0.9039459,-0.8080682,-0.1176062,0,0,0,0,0,0,0,0,0,0,0,1,0,0,0,0,0,0.002563477,-0.9899902,-0.2687988,0,0,0,0,0,0
5.260026,-0.649089,0.9039459,-0.651954,-0.1129082,0,0,0,0,0,0,0,0,0,0,0,1,0,0,0,0,0,-0.006958008,-0.9770508,-0.2443848,0,0,0,0,0,0
5.270026,-0.649089,0.9039459,-0.4095945,-0.01612577,0,0,0,0,0,0,0,0,0,0,0,1,0,0,0,0,0,-0.01538086,-0.9715576,-0.2434082,0,0,0,0,0,0
5.280026,-0.649089,0.9039459,0,0,0,0,0,0,0,0,0,0,0,0,0,1,0,0,0.002249153,0.0007497177,-0.02299134,-0.05859375,-0.9526367,-0.2197266,0,0,0,0,0,0
5.290026,-0.649089,0.9039459,0,0,0,0,0,0,0,0,0,0,0,0,0,1,0,0,0,0,0,-0.003173828,-0.9499512,-0.2368164,0,0,0,0,0,0
5.300026,-0.649089,0.9039459,0,0,0,0,0,0,0,0,0,0,0,0,0,1,0,0,0,0,0,0.0390625,-0.9885254,-0.2550049,0,0,0,0,0,0
5.310027,-0.649089,0.9039459,0,0,0,0,0,0,0,0,0,0,0,0,0,1,0,0,0.001384075,0.009457849,-0.01314872,0.02770996,-0.9914551,-0.2434082,0,0,0,0,0,0
5.320027,-0.649089,0.9039459,0,0,0,0,0,0,0,0,0,0,0,0,0,1,0,0,0,0,0,0.01538086,-0.9938965,-0.2539063,0,0,0,0,0,0
5.330027,-0.649089,0.9039459,0,0,0,0,0,0,0,0,0,0,0,0,0,1,0,0,0,0,0,0.01525879,-0.9957275,-0.2589111,0,0,0,0,0,0
5.340027,-0.649089,0.9039459,0,0,0,0,0,0,0,0,0,0,0,0,0,1,0,0,0.03248777,-0.003248777,0.02873918,0.0006103516,-1.033447,-0.2647705,0,0,0,0,0,0
5.350028,-0.649089,0.9039459,0,0,0,0,0,0,0,0,0,0,0,0,0,1,0,0,0,0,0,0.02099609,-1.025513,-0.2514648,0,0,0,0,0,0
5.360028,-0.649089,0.9039459,0,0,0,0,0,0,0,0,0,0,0,0,0,1,0,0,0,0,0,-0.004272461,-1.007324,-0.199707,0,0,0,0,0,0
5.370028,-0.649089,0.9039459,0,0,0,0,0,0,0,0,0,0,0,0,0,1,0,0,-0.01374483,-0.006497554,0.01399473,-0.02307129,-0.956543,-0.222168,0,0,0,0,0,0
5.380028,-0.649089,0.9039459,0,0,0,0,0,0,0,0,0,0,0,0,0,1,0,0,-0.02399097,0.0009996236,-0.008996612,0.03967285,-0.8723145,-0.1859131,0,0,0,0,0,0
5.390028,-0.649089,0.9039459,0,0,0,0,0,0,0,0,0,0,0,0,0,1,0,0,0,0,0,0.03198242,-0.9094238,-0.2689209,0,0,0,0,0,0
5.400029,-0.649089,0.9039459,0,0,0,0,0,0,0,0,0,0,0,0,0,1,0,0,0,0,0,0.006958008,-0.8935547,-0.2670898,0,0,0,0,0,0
5.410029,-0.6424721,0.9297888,-0.003518183,-9.020981E-05,0,0,0,0,0,0,0,0,0,0,0,1,0,0,0.03998169,0.00224897,0.01399359,0.02246094,-0.8764648,-0.2480469,0,0,0,0,0,0
5.420029,-0.6358177,0.9557259,-0.06957007,-0.009188499,0,0,0,0,0,0,0,0,0,0,0,1,0,0,0,0,0,0.01147461,-0.848877,-0.267334,0,0,0,0,0,0
5.430029,-0.5884867,0.9968243,-0.1159605,-0.01656578,0,0,0,0,0,0,0,0,0,0,0,1,0,0,0,0,0,0.009765625,-0.8693848,-0.3078613,0,0,0,0,0,0
5.44003,-0.5320019,1,-0.1250818,-0.01731901,0,0,0,0,0,0,0,0,0,0,0,1,0,0,0,0,0,0.01647949,-0.890625,-0.3475342,0,0,0,0,0,0
5.45003,-0.4908059,1,-0.09775042,-0.01491108,0,0,0,0,0,0,0,0,0,0,0,1,0,0,0,0,0,0.03894043,-0.9273682,-0.3449707,0,0,0,0,0,0
5.46003,-0.4091095,1,0,0,0,0,0,0,0,0,0,0,0,0,0,1,0,0,0,0,0,0.03527832,-1.043823,-0.2362061,0,0,0,0,0,0
5.47003,-0.3524597,1,0,0,0,0,0,0,0,0,0,0,0,0,0,0,0,0,0,0,0,0.01098633,-1.172729,-0.02185059,0,0,0,0,0,0
5.480031,-0.3444016,1,0,0,0,0,0,0,0,0,0,0,0,0,0,0,0,0,0,0,0,-0.0001220703,-1.226563,-0.1170654,0,0,0,0,0,0
5.490031,-0.3444016,1,0,0,0,0,0,0,0,0,0,0,0,0,0,0,0,0,0,0,0,-0.003051758,-1.071411,-0.02832031,0,0,0,0,0,0
5.500031,-0.3686016,1,0,0,0,0,0,0,0,0,0,0,0,0,0,0,0,0,0,0,0,-0.01477051,-1.087646,-0.1809082,0,0,0,0,0,0
5.510031,-0.3847782,1,0,0,0,0,0,0,0,0,0,0,0,0,0,0,0,0,0,0,0,0.0559082,-1.026245,-0.2712402,0,0,0,0,0,0
5.520031,-0.4172379,1,0,0,0,0,0,0,0,0,0,0,0,0,0,0,0,0,0,0,0,0.1381836,-0.7637939,-0.347168,0,0,0,0,0,0
5.530032,-0.4580168,1,0,0,0,0,0,0,0,0,1,0,0,0,0,0,0,0,0.07971999,-0.06647497,-0.02074219,0.03198242,-0.8321533,-0.3139648,0,0,0,0,0,0
5.540032,-0.4825947,1,0,0,0,0,0,0,0,0,1,0,0,0,0,0,0,0,0,0,0,-0.04223633,-1.097168,-0.01318359,0,0,0,0,0,0
5.550032,-0.5072563,1,0,0,0,0,0,0,0,0,1,0,0,0,0,0,0,0,0,0,0,-0.01599121,-1.2146,-0.04858398,0,0,0,0,0,0
5.560032,-0.523744,1,0,0,0,0,0,0,0,0,1,0,0,0,0,0,0,0,-0.01799322,-0.02673993,0.07772074,-0.03063965,-1.076904,-0.1646729,0,0,0,0,0,0
5.570033,-0.5309846,1,0,0,0,0,0,0,0,0,1,0,0,0,0,0,0,0,0,0,0,-0.03466797,-1.052246,-0.1895752,0,0,0,0,0,0
5.580033,-0.5469962,0.9941757,0,0,0,0,0,0,0,0,1,0,0,0,0,0,0,0,0,0,0,-0.0168457,-1.043457,-0.1408691,0,0,0,0,0,0
5.590033,-0.5552751,0.9947014,0,0,0,0,0,0,0,0,1,0,0,0,0,0,0,0,0,0,0,0.002685547,-1.016602,-0.1479492,0,0,0,0,0,0
5.600033,-0.5547456,0.9857708,0,0,0,0,0,0,0,0,1,0,0,0,0,0,0,0,0,0,0,-0.04406738,-0.9906006,-0.1529541,0,0,0,0,0,0
5.610034,-0.5547456,0.9857708,0,0,0,0,0,0,0,0,1,0,0,0,0,0,0,0,0,0,0,-0.06164551,-0.9614258,-0.1585693,0,0,0,0,0,0
5.620034,-0.5547456,0.9857708,0,0,0,0,0,0,0,0,0,0,0,0,0,0,0,0,0,0,0,-0.02868652,-0.8763428,-0.1947021,0,0,0,0,0,0
5.630034,-0.5547456,0.9857708,0,0,0,0,0,0,0,0,0,0,0,0,0,0,0,0,0,0,0,0.02062988,-0.8812256,-0.2296143,0,0,0,0,0,0
5.640034,-0.5469962,0.9941757,0,0,0,0,0,0,0,0,0,0,0,0,0,0,0,0,-0.004747826,0.01649245,-0.08021326,-0.0546875,-0.9547119,-0.2658691,0,0,0,0,0,0
5.650034,-0.5387272,0.9936524,0,0,0,0,0,0,0,0,0,0,0,0,0,0,0,0,0,0,0,-0.04455566,-1.151978,-0.2185059,0,0,0,0,0,0
5.660035,-0.5309846,1,0,0,0,0,0,0,0,0,0,0,0,0,0,0,0,0,-0.02074219,0.01049605,-0.01849304,-0.02709961,-1.093506,-0.1456299,0,0,0,0,0,0
5.670035,-0.5072563,1,0,0,0,0,0,0,0,0,0,0,0,0,0,1,0,0,-0.07822055,0.02049228,-0.02249153,-0.01342773,-1.054688,-0.07409668,0,0,0,0,0,0
5.680035,-0.4498426,1,0,0,0,0,0,0,0,0,0,0,0,0,0,1,0,0,-0.1181078,0.0311417,-0.05236419,0.05041504,-0.9593506,-0.1490479,0,0,0,0,0,0
5.690035,-0.4172379,1,0,0,0,0,0,0,0,0,0,0,0,0,0,1,0,0,0,0,0,0.05773926,-0.9307861,-0.2364502,0,0,0,0,0,0
5.700036,-0.3928797,1,0,0,0,0,0,0,0,0,0,0,0,0,0,1,0,0,0,0,0,-0.015625,-0.9910889,-0.170166,0,0,0,0,0,0
5.710036,-0.3847782,1,0,0,0,0,0,0,0,0,0,0,0,0,0,1,0,0,-0.05622425,0.02698764,-0.04547917,0.0390625,-0.9979248,-0.2458496,0,0,0,0,0,0
5.720036,-0.3847782,1,0,0,0,0,0,0,0,0,0,0,0,0,0,1,0,0,0,0,0,0.07421875,-0.958374,-0.3078613,0,0,0,0,0,0
5.730036,-0.3766855,1,0,0,0,0,0,0,0,0,0,0,0,0,0,1,0,0,0,0,0,0.09472656,-0.9561768,-0.3104248,0,0,0,0,0,0
5.740036,-0.3766855,1,-0.1120535,-0.3179898,0,0,0,0,0,0,0,0,0,0,0,1,0,0,-0.0154929,-0.01474325,0.008745994,0.1099854,-0.9614258,-0.2664795,0,0,0,0,0,0
5.750037,-0.3766855,1,-0.173824,-0.6915975,0,0,0,0,0,0,0,0,0,0,0,1,0,0,0,0,0,0.1153564,-0.9519043,-0.2636719,0,0,0,0,0,0
5.760037,-0.3766855,1,-0.1848525,-1,0,0,0,0,0,0,0,0,0,0,0,1,0,0,0,0,0,0.01074219,-0.9394531,-0.005493164,0,0,0,0,0,0
5.770037,-0.3524597,1,0.003921574,-1,0,0,0,0,0,0,0,0,0,0,0,1,0,0,-0.003748283,0.03923203,0.06796888,-0.08764648,-0.9711914,-0.1595459,0,0,0,0,0,0
5.780037,-0.3444016,1,0.1059862,-1,0,0,0,0,0,0,0,0,0,0,0,1,0,0,0,0,0,-0.01965332,-0.934082,-0.2572021,0,0,0,0,0,0
5.790038,-0.3202776,1,0.1769445,-1,0,0,0,0,0,0,0,0,0,0,0,1,0,0,0.01849153,0.02798718,0.03098581,0.03149414,-0.8919678,-0.2741699,0,0,0,0,0,0
5.800038,-0.2962267,1,0.2086106,-1,0,0,0,0,0,0,0,0,0,0,0,0,0,0,0,0,0,0.009033203,-0.9345703,-0.2446289,0,0,0,0,0,0
5.810038,-0.2722459,1,0.2562958,-1,0,0,0,0,0,0,0,0,0,0,0,0,0,0,0,0,0,-0.02355957,-0.9517822,-0.2734375,0,0,0,0,0,0
5.820038,-0.2562958,1,0.2882255,-1,0,0,0,0,0,0,0,0,0,0,0,0,0,0,0,0,0,-0.02026367,-0.9949951,-0.2631836,0,0,0,0,0,0
5.830039,-0.2244794,1,0.3122526,-1,0,0,0,0,0,0,0,0,0,0,0,0,0,0,0,0,0,-0.008178711,-1.041138,-0.2530518,0,0,0,0,0,0
5.840039,-0.2086106,1,0.3202776,-1,0,0,0,0,0,0,0,0,0,0,0,0,0,0,0,0,0,-0.0123291,-0.9886475,-0.229248,0,0,0,0,0,0
5.850039,-0.1927661,1,0.3283107,-1,0,0,0,0,0,0,0,0,0,0,0,0,0,0,0,0,0,-0.01049805,-1.038696,-0.2457275,0,0,0,0,0,0
5.860039,-0.1927661,1,0.3283107,-1,0,0,0,0,0,0,0,0,0,0,0,0,0,0,0,0,0,0.01757813,-1.027344,-0.3085938,0,0,0,0,0,0
5.870039,-0.1927661,1,0.336352,-1,0,0,0,0,0,0,0,0,0,0,0,0,0,0,0,0,0,0.04138184,-0.9824219,-0.2785645,0,0,0,0,0,0
5.88004,-0.1927661,1,0.336352,-1,0,0,0,0,0,0,0,0,0,0,0,0,0,0,0,0,0,0.05224609,-0.9794922,-0.2199707,0,0,0,0,0,0
5.89004,-0.1927661,1,0.3283107,-1,0,0,0,0,0,0,0,0,0,0,0,0,0,0,0,0,0,0.0357666,-1.090942,-0.1571045,0,0,0,0,0,0
5.90004,-0.1927661,1,0.336352,-1,0,0,0,0,0,0,0,0,0,0,0,0,0,0,0,0,0,0.0838623,-1.074463,-0.1936035,0,0,0,0,0,0
5.91004,-0.1927661,1,0.3847782,-1,0,0,0,0,0,0,0,0,0,0,0,0,0,0,0,0,0,0.03796387,-0.9962158,-0.1861572,0,0,0,0,0,0
5.920041,-0.1927661,1,0.5266904,-0.9306184,0,0,0,0,0,0,0,0,0,0,0,0,0,0,0,0,0,-0.111084,-1.224731,-0.01806641,0,0,0,0,0,0
5.930041,-0.1927661,1,0.7195071,-0.7195071,0,0,0,0,0,0,0,0,0,0,0,1,0,0,-0.1146476,0.06920377,0.03713936,-0.1032715,-1.084717,0.0006103516,0,0,0,0,0,0
5.940041,-0.1927661,1,0.8355485,-0.5531096,0,0,0,0,0,0,0,0,0,0,0,1,0,0,0,0,0,-0.08374023,-0.9748535,-0.1776123,0,0,0,0,0,0
5.950041,-0.1927661,1,0.9744098,-0.366883,0,0,0,0,0,0,0,0,0,0,0,1,0,0,0,0,0,0.06750488,-0.9221191,-0.4376221,0,0,0,0,0,0
5.960042,-0.1927661,1,1,-0.2483314,0,0,0,0,0,0,0,0,0,0,0,1,0,0,-0.1441745,-0.006689698,-0.08788879,-0.08410645,-0.9224854,-0.2929688,0,0,0,0,0,0
5.970042,-0.1927661,1,1,-0.2324234,0,0,0,0,0,0,0,0,0,0,0,1,0,0,0,0,0,0.04919434,-0.8657227,-0.2889404,0,0,0,0,0,0
5.980042,-0.1927661,1,1,-0.2324234,0,0,0,0,0,0,0,0,0,0,0,1,0,0,0,0,0,0.02734375,-0.8682861,-0.3122559,0,0,0,0,0,0
5.990042,-0.1927661,1,1,-0.2324234,0,0,0,0,0,0,0,0,0,0,0,1,0,0,0,0,0,0.0213623,-0.8862305,-0.2749023,0,0,0,0,0,0
6.000042,-0.2006854,1,1,-0.2403741,0,0,0,0,0,0,0,0,0,0,0,1,0,0,0,0,0,0.05151367,-0.9050293,-0.2630615,0,0,0,0,0,0
6.010043,-0.2165419,1,1,-0.2562958,0,0,0,0,0,0,0,0,0,0,0,1,0,0,0,0,0,0.06604004,-0.8972168,-0.3066406,0,0,0,0,0,0
6.020043,-0.2244794,1,1,-0.2802319,0,0,0,0,0,0,0,0,0,0,0,1,0,0,0,0,0,0.05981445,-0.8953857,-0.2735596,0,0,0,0,0,0
6.030043,-0.2483314,1,1,-0.3122526,0,0,0,0,0,0,0,0,0,0,0,1,0,0,0,0,0,0.0645752,-0.8951416,-0.3150635,0,0,0,0,0,0
6.040043,-0.2722459,1,1,-0.3524597,0,0,0,0,0,0,0,0,0,0,0,1,0,0,0,0,0,0.07592773,-0.9396973,-0.3457031,0,0,0,0,0,0
6.050044,-0.2882255,1,1,-0.3766855,0,0,0,0,0,0,0,0,0,0,0,1,0,0,0,0,0,0.07177734,-0.940918,-0.2469482,0,0,0,0,0,0
6.060044,-0.3122526,1,1,-0.4172379,0,0,0,0,0,0,0,0,0,0,0,0,0,0,0,0,0,0.05615234,-1.016235,-0.2177734,0,0,0,0,0,0
6.070044,-0.3202776,1,1,-0.4416777,0,0,0,0,0,0,0,0,0,0,0,0,0,0,0,0,0,0.05053711,-1.016113,-0.1994629,0,0,0,0,0,0
6.080044,-0.3283107,1,1,-0.4498426,0,0,0,0,0,0,0,0,0,0,0,0,0,0,0,0,0,0.03063965,-1.041748,-0.2199707,0,0,0,0,0,0
6.090044,-0.3283107,1,1,-0.4498426,0,0,0,0,0,0,0,0,0,0,0,0,0,0,0,0,0,-0.015625,-0.9844971,-0.270874,0,0,0,0,0,0
6.100045,-0.3444016,1,1,-0.4498426,0,0,0,0,0,0,0,0,0,0,0,0,0,0,0,0,0,0.001831055,-0.9847412,-0.2314453,0,0,0,0,0,0
6.110045,-0.3524597,1,1,-0.4416777,0,0,0,0,0,0,0,0,0,0,0,0,0,0,0,0,0,-0.03845215,-1.03125,-0.1152344,0,0,0,0,0,0
6.120045,-0.3524597,1,1,-0.3444016,0,0,0,0,0,0,0,0,0,0,0,0,0,0,0,0,0,-0.004516602,-1.067627,-0.1486816,0,0,0,0,0,0
6.130045,-0.3605264,1,0.9939921,-0.1925123,0,0,0,0,0,0,0,0,0,0,0,1,0,0,0,0,0,-0.05187988,-1.025757,-0.2099609,0,0,0,0,0,0
6.140046,-0.3605264,1,1,-0.113854,0,0,0,0,0,0,0,0,0,0,0,1,0,0,0,0,0,-0.004150391,-1.087524,-0.1872559,0,0,0,0,0,0
6.150046,-0.3605264,1,1,0.02745281,0,0,0,0,0,0,0,0,0,0,0,1,0,0,0,0,0,-0.03015137,-0.9251709,-0.1176758,0,0,0,0,0,0
6.160046,-0.3605264,1,1,0.1453634,0,0,0,0,0,0,0,0,0,0,0,1,0,0,-0.03898532,-0.01999247,-0.06572525,0.08105469,-0.9539795,-0.3149414,0,0,0,0,0,0
6.170046,-0.3605264,1,1,0.1927661,0,0,0,0,0,0,0,0,0,0,0,1,0,0,0,0,0,0.05383301,-0.942627,-0.303833,0,0,0,0,0,0
6.180047,-0.4009901,1,0.996002,0.2480163,0,0,0,0,0,0,0,0,0,0,0,1,0,0,0,0,0,0.01794434,-0.987793,-0.2197266,0,0,0,0,0,0
6.190047,-0.4498426,1,0.9893057,0.3034922,0,0,0,0,0,0,0,0,0,0,0,1,0,0,0.01449454,-0.04123447,-0.03448702,0.05187988,-0.9886475,-0.2359619,0,0,0,0,0,0
6.200047,-0.4908059,1,0.9813743,0.3271248,0,0,0,0,0,0,0,0,0,0,0,1,0,0,0,0,0,0.09228516,-0.9990234,-0.2519531,0,0,0,0,0,0
6.210047,-0.5320019,1,0.9826142,0.3512155,0,0,0,0,0,0,0,0,0,0,0,1,0,0,0,0,0,0.1027832,-1.016479,-0.1964111,0,0,0,0,0,0
6.220047,-0.5640897,1,0.9826142,0.3512155,0,0,0,0,0,0,0,0,0,0,0,1,0,0,0,0,0,0.08569336,-1.039185,-0.1522217,0,0,0,0,0,0
6.230048,-0.5874074,0.9790122,0.9826142,0.3512155,0,0,0,0,0,0,0,0,0,0,0,1,0,0,0,0,0,0.05688477,-1.028076,-0.1854248,0,0,0,0,0,0
6.240048,-0.6112997,0.9628969,1,0.3524597,0,0,0,0,0,0,0,0,0,0,0,1,0,0,-0.01176464,0.001384075,0.01153396,0.0456543,-0.975708,-0.2122803,0,0,0,0,0,0
6.250048,-0.6190876,0.9545932,1,0.3524597,0,0,0,0,0,0,0,0,0,0,0,1,0,0,0,0,0,0.0369873,-0.9709473,-0.1934814,0,0,0,0,0,0
6.260048,-0.6268787,0.9463074,1,0.3524597,0,0,0,0,0,0,0,0,0,0,0,1,0,0,0,0,0,0.03833008,-0.944458,-0.2338867,0,0,0,0,0,0
6.270049,-0.6424721,0.9297888,1,0.3524597,0,0,0,0,0,0,0,0,0,0,0,1,0,0,-0.004498306,0.008996612,-0.003498683,0.0201416,-0.9475098,-0.248291,0,0,0,0,0,0
6.280049,-0.6508609,0.9303717,1,0.3524597,0,0,0,0,0,0,0,0,0,0,0,1,0,0,0,0,0,0.02600098,-0.9736328,-0.2471924,0,0,0,0,0,0
6.290049,-0.6502753,0.9215559,1,0.3524597,0,0,0,0,0,0,0,0,0,0,0,1,0,0,-0.001999247,0.01049605,0.005248024,0.01806641,-0.9598389,-0.2617188,0,0,0,0,0,0
6.300049,-0.6502753,0.9215559,1,0.3444016,0,0,0,0,0,0,0,0,0,0,0,1,0,0,0,0,0,0.008911133,-0.9472656,-0.2600098,0,0,0,0,0,0
6.31005,-0.6502753,0.9215559,1,0.336352,0,0,0,0,0,0,0,0,0,0,0,1,0,0,0,0,0,0.01171875,-0.9537354,-0.2435303,0,0,0,0,0,0
6.32005,-0.6502753,0.9215559,1,0.336352,0,0,0,0,0,0,0,0,0,0,0,1,0,0,0.008246895,0.01649379,-0.01774332,0.0213623,-0.9622803,-0.243042,0,0,0,0,0,0
6.33005,-0.6502753,0.9215559,1,0.336352,0,0,0,0,0,0,0,0,0,0,0,1,0,0,0,0,0,0.02868652,-0.9709473,-0.2393799,0,0,0,0,0,0
6.34005,-0.6586743,0.9221439,1,0.3283107,0,0,0,0,0,0,0,0,0,0,0,1,0,0,0,0,0,0.03845215,-0.9796143,-0.230835,0,0,0,0,0,0
6.35005,-0.6586743,0.9221439,1,0.3283107,0,0,0,0,0,0,0,0,0,0,0,1,0,0,0,0,0,0.04296875,-0.9803467,-0.2224121,0,0,0,0,0,0
6.360051,-0.6670833,0.922732,1,0.3283107,0,0,0,0,0,0,0,0,0,0,0,1,0,0,0,0,0,0.03771973,-0.9864502,-0.2264404,0,0,0,0,0,0
6.370051,-0.6670833,0.922732,1,0.3283107,0,0,0,0,0,0,0,0,0,0,0,1,0,0,0,0,0,0.0411377,-0.9873047,-0.2143555,0,0,0,0,0,0
6.380051,-0.6670833,0.922732,1,0.3202776,0,0,0,0,0,0,0,0,0,0,0,1,0,0,0,0,0,0.04760742,-1.00293,-0.2084961,0,0,0,0,0,0
6.390051,-0.6670833,0.922732,1,0.3122526,0,0,0,0,0,0,0,0,0,0,0,1,0,0,0,0,0,0.03747559,-0.9906006,-0.2220459,0,0,0,0,0,0
6.400052,-0.6827472,0.9063369,1,0.2882255,0,0,0,0,0,0,0,0,0,0,0,1,0,0,0,0,0,0.03735352,-0.9760742,-0.2293701,0,0,0,0,0,0
6.410052,-0.6905887,0.8981643,1,0.2642672,0,0,0,0,0,0,0,0,0,0,0,1,0,0,0,0,0,0.03735352,-0.9787598,-0.2175293,0,0,0,0,0,0
6.420052,-0.69783,0.8812595,1,0.2403741,0,0,0,0,0,0,0,0,0,0,0,1,0,0,0,0,0,0.03649902,-0.9799805,-0.203125,0,0,0,0,0,0
6.430052,-0.7141563,0.8737444,1,0.2244794,0,0,0,0,0,0,0,0,0,0,0,1,0,0,0.01499313,0.01499313,-0.02648787,0.04345703,-0.9797363,-0.2009277,0,0,0,0,0,0
6.440053,-0.7226405,0.8743551,1,0.2086106,0,0,0,0,0,0,0,0,0,0,0,1,0,0,0,0,0,0.0489502,-0.9759521,-0.2053223,0,0,0,0,0,0
6.450053,-0.7305239,0.8662497,1,0.2006854,0,0,0,0,0,0,0,0,0,0,0,1,0,0,0.0133794,0.02191453,-0.02375996,0.05407715,-0.9628906,-0.2127686,0,0,0,0,0,0
6.460053,-0.7305239,0.8662497,1,0.1927661,0,0,0,0,0,0,0,0,0,0,0,1,0,0,0,0,0,0.05371094,-0.9631348,-0.2189941,0,0,0,0,0,0
6.470053,-0.7305239,0.8662497,1,0.1769445,0,0,0,0,0,0,0,0,0,0,0,1,0,0,0,0,0,0.05334473,-0.9768066,-0.2192383,0,0,0,0,0,0
6.480053,-0.7384164,0.8581596,1,0.1532514,0,0,0,0,0,0,0,0,0,0,0,1,0,0,0.0177623,0.01591687,-0.0177623,0.04187012,-0.9886475,-0.2347412,0,0,0,0,0,0
6.490054,-0.7542298,0.8420238,1,0.1374799,0,0,0,0,0,0,0,0,0,0,0,1,0,0,0,0,0,0.04406738,-0.9990234,-0.239624,0,0,0,0,0,0
6.500054,-0.7694606,0.8173026,1,0.113854,0,0,0,0,0,0,0,0,0,0,0,1,0,0,0,0,0,0.04077148,-1.034424,-0.2373047,0,0,0,0,0,0
6.510054,-0.7920645,0.7761437,1,0.09812176,0,0,0,0,0,0,0,0,0,0,0,1,0,0,0,0,0,0.05163574,-1.023193,-0.2663574,0,0,0,0,0,0
6.520054,-0.8154141,0.7438167,1,0.08240198,0,0,0,0,0,0,0,0,0,0,0,1,0,0,0,0,0,0.04956055,-1,-0.2689209,0,0,0,0,0,0
6.530055,-0.8619251,0.6712689,1,0.05099206,0,0,0,0,0,0,0,0,0,0,0,1,0,0,0,0,0,0.01501465,-0.9400635,-0.255249,0,0,0,0,0,0
6.540055,-0.923993,0.5591546,1,-0.01176485,0,0,0,0,0,0,0,0,0,0,0,1,0,0,0.06996796,0.002498855,-0.06497025,0.04431152,-0.9451904,-0.2452393,0,0,0,0,0,0
6.550055,-0.9615974,0.455077,0.9541118,-0.05062634,0,0,0,0,0,0,0,0,0,0,0,1,0,0,0,0,0,0.008666992,-0.9434814,-0.3220215,0,0,0,0,0,0
6.560055,-1,0.2802319,0.798227,-0.09457666,0,0,0,0,0,0,0,0,0,0,0,1,0,0,0,0,0,0.03588867,-1.041992,-0.2626953,0,0,0,0,0,0
6.570055,-1,0.1611441,0.6057717,-0.103949,0,0,0,0,0,0,0,0,0,0,0,0,0,0,0,0,0,0.09399414,-1.195313,-0.1806641,0,0,0,0,0,0
6.580056,-1,0.02745281,0.2695113,-0.08227186,0,0,0,0,0,0,0,0,0,0,0,0,0,0,0,0,0,0.03808594,-1.046021,-0.07910156,0,0,0,0,0,0
6.590056,-1,-0.06669273,0,0,0,0,0,0,0,0,0,0,0,0,0,0,0,0,-0.08119909,-0.04313702,-0.1264122,0.05224609,-0.9779053,-0.1358643,0,0,0,0,0,0
6.600056,-1,-0.09026043,0,0,0,0,0,0,0,0,0,0,0,0,0,0,0,0,0,0,0,0.1940918,-0.8972168,-0.3630371,0,0,0,0,0,0
6.610056,-1,-0.113854,0,0,0,0,0,0,0,0,0,0,0,0,0,0,0,0,0,0,0,0.06274414,-0.8863525,-0.3238525,0,0,0,0,0,0
6.620057,-1,-0.1453634,-0.2028794,0.05259838,0,0,0,0,0,0,0,0,0,0,0,0,0,0,0.007612415,-0.1010375,-0.1259509,0.07421875,-0.9442139,-0.236084,0,0,0,0,0,0
6.630057,-1,-0.1690417,-0.2972717,0.09124179,0,0,0,0,0,0,0,0,0,0,0,0,0,0,0,0,0,0.09741211,-1.00647,-0.1975098,0,0,0,0,0,0
6.640057,-1,-0.1927661,-0.3101657,0.1174414,0,0,0,0,0,0,0,0,0,0,0,0,0,0,0,0,0,0.08325195,-1.1521,-0.04846191,0,0,0,0,0,0
6.650057,-1,-0.2086106,-0.3170559,0.1569888,0,0,0,0,0,0,0,0,0,0,0,0,0,0,-0.06250856,-0.0375974,-0.00415186,0.194458,-1.137207,-0.02819824,0,0,0,0,0,0
6.660058,-1,-0.2165419,-0.3220741,0.184489,0,0,0,0,0,0,0,0,0,0,0,0,0,0,0,0,0,0.2015381,-1.034668,-0.1286621,0,0,0,0,0,0
6.670058,-0.9896863,-0.3114949,-0.2844224,0.1987898,0,0,0,0,0,0,0,0,0,0,0,0,0,0,0,0,0,0.1994629,-0.9641113,-0.1751709,0,0,0,0,0,0
6.680058,-0.8808895,-0.5727757,-0.1992198,0.1879961,0,0,0,0,0,0,0,0,0,0,0,0,0,0,-0.05259022,0.01037965,0.0375974,0.2686768,-0.9227295,-0.2537842,0,0,0,0,0,0
6.690058,-0.7097673,-0.812862,-0.1154958,0.1646429,0,0,0,0,0,0,0,0,0,0,0,0,0,0,0,0,0,0.293335,-0.9302979,-0.2368164,0,0,0,0,0,0
6.700058,-0.4253754,-1,-0.009106351,0.11474,0,0,0,0,0,0,0,0,0,0,0,0,0,0,0,0,0,0.09570313,-1.288818,0.05529785,0,0,0,0,0,0
6.710059,-0.2962267,-1,0.03670416,0.1217032,0,0,0,0,0,0,0,0,0,0,0,1,0,0,0,0,0,0.2607422,-0.9571533,-0.2371826,0,0,0,0,0,0
6.720059,-0.1611441,-1,0.1242591,0.1534966,0,0,0,0,0,0,0,0,0,0,0,1,0,0,0,0,0,0.2205811,-0.9858398,-0.2832031,0,0,0,0,0,0
6.730059,-0.05099206,-1,0.2282025,0.1877615,0,0,0,0,0,0,0,0,0,0,0,1,0,0,-0.1509309,0.05197619,0.1656741,0.046875,-0.9953613,-0.2122803,0,0,0,0,0,0
6.740059,0.003921574,-1,0.2762385,0.1973132,0,0,0,0,0,0,0,0,0,0,0,1,0,0,0,0,0,0.1889648,-0.8321533,-0.2026367,0,0,0,0,0,0
6.75006,0.05099206,-1,0.3683691,0.2118938,0,0,0,0,0,0,0,0,0,0,0,1,0,0,0,0,0,0.0736084,-0.885498,-0.3649902,0,0,0,0,0,0
6.76006,0.06669273,-1,0.4463023,0.2214477,0,0,0,0,0,0,0,0,0,0,0,1,0,0,0,0,0,0.08776855,-0.8389893,-0.4667969,0,0,0,0,0,0
6.77006,0.07454614,-1,0.6118925,0.1991366,0,0,0,0,0,0,0,0,0,0,0,1,0,0,0,0,0,0.0859375,-0.7841797,-0.4475098,0,0,0,0,0,0
6.78006,0.07454614,-1,0.8274657,0.148715,0,0,0,0,0,0,0,0,0,0,0,1,0,0,0.003690868,-0.01384075,0.08950355,0.05639648,-0.8422852,-0.3480225,0,0,0,0,0,0
6.790061,0.07454614,-1,0.9916281,0.09798697,0,0,0,0,0,0,0,0,0,0,0,1,0,0,0,0,0,0.04943848,-0.880249,-0.2854004,0,0,0,0,0,0
6.800061,0.05099206,-1,1,-0.02745281,0,0,0,0,0,0,0,0,0,0,0,1,0,0,0,0,0,-0.02929688,-0.9412842,-0.1369629,0,0,0,0,0,0
6.810061,0.02745281,-1,1,-0.113854,0,0,0,0,0,0,0,0,0,0,0,1,0,0,-0.04073134,0.02698764,0.009495651,0.01586914,-0.9770508,-0.2009277,0,0,0,0,0,0
6.820061,0.01176485,-1,1,-0.1217254,0,0,0,0,0,0,0,0,0,0,0,1,0,0,0,0,0,-0.004760742,-0.9213867,-0.3269043,0,0,0,0,0,0
6.830061,-0.035298,-1,1,-0.1217254,0,0,0,0,0,0,0,0,0,0,0,1,0,0,0,0,0,-0.007324219,-0.8845215,-0.3529053,0,0,0,0,0,0
6.840062,-0.113854,-1,1,-0.1217254,0,0,0,0,0,0,0,0,0,0,0,1,0,0,0.0297388,0.01349492,-0.05397968,-0.01220703,-0.9094238,-0.3342285,0,0,0,0,0,0
6.850062,-0.1769445,-1,1,-0.1217254,0,0,0,0,0,0,0,0,0,0,0,1,0,0,0,0,0,0.007568359,-0.9599609,-0.3392334,0,0,0,0,0,0
6.860062,-0.2562958,-1,1,-0.1296006,0,0,0,0,0,0,0,0,0,0,0,1,0,0,0,0,0,-0.004882813,-1.014648,-0.3571777,0,0,0,0,0,0
6.870062,-0.3444016,-1,1,-0.1374799,0,0,0,0,0,0,0,0,0,0,0,1,0,0,0,0,0,-0.004638672,-1.021973,-0.3702393,0,0,0,0,0,0
6.880063,-0.4244535,-0.9956806,1,-0.1374799,0,0,0,0,0,0,0,0,0,0,0,1,0,0,0,0,0,0.02734375,-1.020874,-0.3654785,0,0,0,0,0,0
6.890063,-0.5983165,-0.8915312,1,-0.1374799,0,0,0,0,0,0,0,0,0,0,0,1,0,0,0,0,0,0.04638672,-1.030273,-0.3338623,0,0,0,0,0,0
6.900063,-0.7386271,-0.7465269,1,-0.1374799,0,0,0,0,0,0,0,0,0,0,0,1,0,0,0.03423711,-0.05547911,-0.01599398,0.04077148,-1.037964,-0.3123779,0,0,0,0,0,0
6.910063,-0.8096247,-0.6674467,1,-0.1217254,0,0,0,0,0,0,0,0,0,0,0,1,0,0,0,0,0,0.03588867,-1.03479,-0.3039551,0,0,0,0,0,0
6.920063,-0.8563014,-0.5958595,1,-0.05099206,0,0,0,0,0,0,0,0,0,0,0,1,0,0,0,0,0,0.03588867,-1.024536,-0.2557373,0,0,0,0,0,0
6.930064,-0.8879303,-0.5485436,1,-0.003921574,0,0,0,0,0,0,0,0,0,0,0,1,0,0,0,0,0,0.05407715,-0.9871826,-0.2508545,0,0,0,0,0,0
6.940064,-0.918911,-0.4850903,1,0.08240198,0,0,0,0,0,0,0,0,0,0,0,1,0,0,0,0,0,0.07104492,-0.989624,-0.2180176,0,0,0,0,0,0
6.950064,-0.9415871,-0.4215474,1,0.1611441,0,0,0,0,0,0,0,0,0,0,0,1,0,0,-0.02074219,-0.007247271,-0.04398344,0.07434082,-0.979248,-0.2382813,0,0,0,0,0,0
6.960064,-0.957212,-0.382097,1,0.1927661,0,0,0,0,0,0,0,0,0,0,0,1,0,0,0,0,0,0.06530762,-0.9683838,-0.229126,0,0,0,0,0,0
6.970065,-0.9714789,-0.310716,1,0.2244794,0,0,0,0,0,0,0,0,0,0,0,1,0,0,-0.02324125,0.0009996236,-0.021242,0.06640625,-0.9550781,-0.2355957,0,0,0,0,0,0
6.980065,-0.9882084,-0.2795331,1,0.2483314,0,0,0,0,0,0,0,0,0,0,0,1,0,0,0,0,0,0.06542969,-0.9418945,-0.2485352,0,0,0,0,0,0
6.990065,-0.9956888,-0.2400673,1,0.2642672,0,0,0,0,0,0,0,0,0,0,0,1,0,0,0,0,0,0.05627441,-0.9665527,-0.25,0,0,0,0,0,0
7.000065,-1,-0.2244794,1,0.2882255,0,0,0,0,0,0,0,0,0,0,0,1,0,0,-0.009746331,-0.001999247,0.002249153,0.06091309,-0.96521,-0.2543945,0,0,0,0,0,0
7.010066,-1,-0.2244794,1,0.3042357,0,0,0,0,0,0,0,0,0,0,0,1,0,0,0,0,0,0.06066895,-0.9536133,-0.2562256,0,0,0,0,0,0
7.020066,-1,-0.2086106,1,0.3283107,0,0,0,0,0,0,0,0,0,0,0,1,0,0,-0.004152226,-0.01268736,0.005536302,0.06420898,-0.9291992,-0.2662354,0,0,0,0,0,0
7.030066,-1,-0.2006854,1,0.336352,0,0,0,0,0,0,0,0,0,0,0,1,0,0,0,0,0,0.07568359,-0.9283447,-0.265625,0,0,0,0,0,0
7.040066,-1,-0.1769445,1,0.336352,0,0,0,0,0,0,0,0,0,0,0,1,0,0,0,0,0,0.06652832,-0.9420166,-0.2558594,0,0,0,0,0,0
7.050066,-1,-0.1453634,1,0.336352,0,0,0,0,0,0,0,0,0,0,0,1,0,0,0.01774332,-0.006497554,0.005248024,0.07971191,-0.9338379,-0.272583,0,0,0,0,0,0
7.060067,-1,-0.113854,1,0.336352,0,0,0,0,0,0,0,0,0,0,0,1,0,0,0,0,0,0.0715332,-0.9316406,-0.286377,0,0,0,0,0,0
7.070067,-1,-0.08240198,1,0.336352,0,0,0,0,0,0,0,0,0,0,0,1,0,0,0,0,0,0.06555176,-0.9379883,-0.288208,0,0,0,0,0,0
7.080067,-1,-0.035298,1,0.3283107,0,0,0,0,0,0,0,0,0,0,0,1,0,0,0.03423711,0.01124577,0.01424464,0.07519531,-0.9576416,-0.2683105,0,0,0,0,0,0
7.090067,-1,0.01960851,1,0.3202776,0,0,0,0,0,0,0,0,0,0,0,1,0,0,0,0,0,0.07385254,-0.9799805,-0.2589111,0,0,0,0,0,0
7.100068,-1,0.09812176,1,0.3122526,0,0,0,0,0,0,0,0,0,0,0,1,0,0,0,0,0,0.07287598,-1.001465,-0.2452393,0,0,0,0,0,0
7.110068,-1,0.1769445,1,0.3122526,0,0,0,0,0,0,0,0,0,0,0,1,0,0,0,0,0,0.08691406,-1.007813,-0.262085,0,0,0,0,0,0
7.120068,-1,0.2244794,1,0.3122526,0,0,0,0,0,0,0,0,0,0,0,1,0,0,0,0,0,0.0970459,-1.010742,-0.2636719,0,0,0,0,0,0
7.130068,-1,0.2962267,1,0.3042357,0,0,0,0,0,0,0,0,0,0,0,1,0,0,0,0,0,0.1002197,-0.9951172,-0.2719727,0,0,0,0,0,0
7.140069,-1,0.3444016,1,0.3042357,0,0,0,0,0,0,0,0,0,0,0,1,0,0,0,0,0,0.08679199,-0.9987793,-0.2755127,0,0,0,0,0,0
7.150069,-1,0.3686016,1,0.2962267,0,0,0,0,0,0,0,0,0,0,0,1,0,0,0.01724351,0.0297388,0.0422341,0.0723877,-0.99646,-0.2790527,0,0,0,0,0,0
7.160069,-1,0.3766855,1,0.2882255,0,0,0,0,0,0,0,0,0,0,0,1,0,0,0,0,0,0.04846191,-1.003418,-0.2860107,0,0,0,0,0,0
7.170069,-1,0.3766855,1,0.2802319,0,0,0,0,0,0,0,0,0,0,0,1,0,0,0,0,0,0.02453613,-0.9918213,-0.2763672,0,0,0,0,0,0
7.180069,-1,0.3766855,0.832537,0.2570506,0,0,0,0,0,0,0,0,0,0,0,1,0,0,-0.003690868,0.01199532,-0.0006920377,0.04528809,-1.030518,-0.2358398,0,0,0,0,0,0
7.19007,-1,0.3766855,0.7056437,0.2501488,0,0,0,0,0,0,0,0,0,0,0,1,0,0,0,0,0,0.04309082,-0.9954834,-0.2462158,0,0,0,0,0,0
7.20007,-1,0.3766855,0.5442318,0.2383237,0,0,0,0,0,0,0,0,0,0,0,1,0,0,0,0,0,0.06115723,-0.9394531,-0.1959229,0,0,0,0,0,0
7.21007,-1,0.3766855,0.4893999,0.218668,0,0,0,0,0,0,0,0,0,0,0,1,0,0,-0.01753162,0.02006909,-0.02191453,0.06872559,-0.9520264,-0.2425537,0,0,0,0,0,0
7.22007,-1,0.3605264,0.4699852,0.2024024,0,0,0,0,0,0,0,0,0,0,0,1,0,0,0,0,0,0.05383301,-0.9555664,-0.2840576,0,0,0,0,0,0
7.230071,-1,0.3202776,0.4682983,0.188003,0,0,0,0,0,0,0,0,0,0,0,1,0,0,0,0,0,0.03833008,-0.9779053,-0.2813721,0,0,0,0,0,0
7.240071,-1,0.2962267,0.4674807,0.1808502,0,0,0,0,0,0,0,0,0,0,0,1,0,0,0,0,0,0.04748535,-0.9804688,-0.2589111,0,0,0,0,0,0
7.250071,-1,0.2562958,0.4666817,0.1737282,0,0,0,0,0,0,0,0,0,0,0,1,0,0,-5.768001E-05,-0.006113061,-0.003614002,0.0637207,-0.963501,-0.2701416,0,0,0,0,0,0
7.260071,-1,0.2165419,0.4659023,0.1666366,0,0,0,0,0,0,0,0,0,0,0,1,0,0,0,0,0,0.06494141,-0.9626465,-0.2669678,0,0,0,0,0,0
7.270072,-1,0.2006854,0.4651437,0.1595748,0,0,0,0,0,0,0,0,0,0,0,1,0,0,0,0,0,0.06262207,-0.9790039,-0.2484131,0,0,0,0,0,0
7.280072,-1,0.1769445,0.4651437,0.1595748,0,0,0,0,0,0,0,0,0,0,0,1,0,0,-0.008745994,-0.01374371,0.005997253,0.07568359,-0.9871826,-0.2686768,0,0,0,0,0,0
7.290072,-1,0.1690417,0.4651437,0.1595748,0,0,0,0,0,0,0,0,0,0,0,1,0,0,0,0,0,0.07751465,-0.984375,-0.279541,0,0,0,0,0,0
7.300072,-1,0.1532514,0.4651437,0.1595748,0,0,0,0,0,0,0,0,0,0,0,1,0,0,0,0,0,0.08166504,-0.9771729,-0.291748,0,0,0,0,0,0
7.310072,-1,0.1453634,0.4741192,0.1603137,0,0,0,0,0,0,0,0,0,0,0,1,0,0,-0.006997366,0,0.02299134,0.08337402,-0.984375,-0.291626,0,0,0,0,0,0
7.320073,-1,0.1453634,0.4741192,0.1603137,0,0,0,0,0,0,0,0,0,0,0,1,0,0,0,0,0,0.07543945,-0.9710693,-0.2902832,0,0,0,0,0,0
7.330073,-1,0.1453634,0.4741192,0.1603137,0,0,0,0,0,0,0,0,0,0,0,1,0,0,0,0,0,0.06530762,-0.9581299,-0.291626,0,0,0,0,0,0
7.340073,-1,0.1453634,0.4748597,0.1673966,0,0,0,0,0,0,0,0,0,0,0,1,0,0,0.01074595,0.005997742,0.02499059,0.05383301,-0.9459229,-0.3065186,0,0,0,0,0,0
7.350073,-1,0.1611441,0.4666817,0.1737282,0,0,0,0,0,0,0,0,0,0,0,1,0,0,0,0,0,0.05688477,-0.9504395,-0.307251,0,0,0,0,0,0
7.360074,-1,0.1769445,0.4249301,0.1907167,0,0,0,0,0,0,0,0,0,0,0,1,0,0,0,0,0,0.0501709,-0.9609375,-0.2956543,0,0,0,0,0,0
7.370074,-1,0.1769445,0.3369516,0.2214254,0,0,0,0,0,0,0,0,0,0,0,1,0,0,0.02722015,-0.005536302,0.002537472,0.02099609,-0.9648438,-0.2989502,0,0,0,0,0,0
7.380074,-1,0.1848525,0.2628945,0.2443373,0,0,0,0,0,0,0,0,0,0,0,1,0,0,0,0,0,0.01904297,-0.9698486,-0.289917,0,0,0,0,0,0
7.390074,-1,0.1769445,0.1379325,0.2392706,0,0,0,0,0,0,0,0,0,0,0,1,0,0,0,0,0,0.05004883,-1.003784,-0.2753906,0,0,0,0,0,0
7.400074,-1,0.1611441,0.04602497,0.246369,0,0,0,0,0,0,0,0,0,0,0,1,0,0,-0.003998494,-0.01299511,-0.04573278,0.0526123,-1.006348,-0.2668457,0,0,0,0,0,0
7.410075,-1,0.1217254,-0.01379296,0.2620663,0,0,0,0,0,0,0,0,0,0,0,1,0,0,0,0,0,0.04382324,-0.9819336,-0.2736816,0,0,0,0,0,0
7.420075,-1,0.06669273,-0.1036943,0.299232,0,0,0,0,0,0,0,0,0,0,0,1,0,0,0,0,0,0.04052734,-0.9979248,-0.2462158,0,0,0,0,0,0
7.430075,-1,-0.003921574,-0.2011212,0.3415868,0,0,0,0,0,0,0,0,0,0,0,1,0,0,-0.01199548,-0.01374483,-0.04823184,0.07116699,-0.9909668,-0.2315674,0,0,0,0,0,0
7.440075,-1,-0.05099206,-0.2534285,0.3587494,0,0,0,0,0,0,0,0,0,0,0,1,0,0,0,0,0,0.07885742,-0.9753418,-0.2213135,0,0,0,0,0,0
7.450076,-1,-0.1059862,-0.3157328,0.3768424,0,0,0,0,0,0,0,0,0,0,0,1,0,0,0,0,0,0.07336426,-0.9541016,-0.2214355,0,0,0,0,0,0
7.460076,-1,-0.1532514,-0.3563226,0.3909171,0,0,0,0,0,0,0,0,0,0,0,1,0,0,0.005248024,-0.004748212,-0.01449454,0.08032227,-0.9425049,-0.2381592,0,0,0,0,0,0
7.470076,-1,-0.1927661,-0.3563226,0.3909171,0,0,0,0,0,0,0,0,0,0,0,1,0,0,0,0,0,0.07348633,-0.9364014,-0.2412109,0,0,0,0,0,0
7.480076,-1,-0.2562958,-0.3643056,0.3920622,0,0,0,0,0,0,0,0,0,0,0,1,0,0,0,0,0,0.0670166,-0.9344482,-0.2421875,0,0,0,0,0,0
7.490077,-0.9896863,-0.3114949,-0.3404576,0.3886031,0,0,0,0,0,0,0,0,0,0,0,1,0,0,0,0,0,0.07055664,-0.9245605,-0.2532959,0,0,0,0,0,0
7.500077,-0.9436333,-0.4540495,-0.2312489,0.3550159,0,0,0,0,0,0,0,0,0,0,0,1,0,0,0,0,0,0.03308105,-0.9211426,-0.2822266,0,0,0,0,0,0
7.510077,-0.8176712,-0.6596672,-0.1089236,0.2914443,0,0,0,0,0,0,0,0,0,0,0,1,0,0,0,0,0,0.02868652,-0.9353027,-0.2568359,0,0,0,0,0,0
7.520077,-0.6048162,-0.8657174,-0.01316958,0.2344186,0,0,0,0,0,0,0,0,0,0,0,1,0,0,0.01361008,0.002537472,0.0232986,0.0291748,-0.8983154,-0.2680664,0,0,0,0,0,0
7.530077,-0.4397748,-0.9785979,0.04302189,0.2100481,0,0,0,0,0,0,0,0,0,0,0,1,0,0,0,0,0,0.0201416,-0.8985596,-0.2602539,0,0,0,0,0,0
7.540078,-0.2086106,-1,0.1088201,0.1847411,0,0,0,0,0,0,0,0,0,0,0,1,0,0,-0.01074595,-0.01324501,-0.008996612,0.07507324,-0.8352051,-0.3796387,0,0,0,0,0,0
7.550078,-0.07454614,-1,0.1735322,0.195568,0,0,0,0,0,0,0,0,0,0,0,1,0,0,0,0,0,0.09716797,-0.8188477,-0.3458252,0,0,0,0,0,0
7.560078,0.1296006,-1,0.3065069,0.1888578,0,0,0,0,0,0,0,0,0,0,0,1,0,0,0,0,0,0.1356201,-0.784668,-0.3077393,0,0,0,0,0,0
7.570078,0.3928797,-1,0.4676081,0.08410217,0,0,0,0,0,0,0,0,0,0,0,1,0,0,0.2564034,0.05472939,0.01349492,0.2189941,-0.9888916,-0.2124023,0,0,0,0,0,0
7.580079,0.5900663,-1,0.6216869,-0.003593566,0,0,0,0,0,0,0,0,0,0,0,0,0,0,0.2753739,0.07196704,0.05522471,0.1702881,-1.067017,-0.1583252,0,0,0,0,0,0
7.590079,0.8050102,-0.8370504,0.8558514,-0.1727054,0,0,0,0,0,0,0,0,0,0,0,0,0,0,0,0,0,0.09729004,-1.256104,-0.1795654,0,0,0,0,0,0
7.600079,0.9244941,-0.6923701,1,-0.3122526,0,0,0,0,0,0,0,0,0,0,0,0,0,0,0.1521803,0.1002041,0.154929,-0.1251221,-1.16394,-0.02062988,0,0,0,0,0,0
7.610079,0.9480243,-0.6520168,1,-0.3283107,0,0,0,0,0,0,0,0,0,0,0,0,0,0,0.05605506,0.08235249,0.1169544,-0.06677246,-1.16394,-0.1125488,0,0,0,0,0,0
7.62008,0.9557259,-0.6358177,1,-0.336352,0,0,0,0,0,0,0,0,0,0,0,0,0,0,0,0,0,0.1031494,-1.030029,-0.3739014,0,0,0,0,0,0
7.63008,0.9557259,-0.6358177,1,-0.336352,0,0,0,0,0,0,0,0,0,0,0,0,0,0,0,0,0,0.04724121,-0.9903564,-0.3181152,0,0,0,0,0,0
7.64008,0.9480243,-0.6520168,1,-0.336352,0,0,0,0,0,0,0,0,0,0,0,0,0,0,0,0,0,0.0333252,-0.9661865,-0.3498535,0,0,0,0,0,0
7.65008,0.8370504,-0.8050102,1,-0.336352,0,0,0,0,0,0,0,0,0,0,0,0,0,0,0,0,0,-0.01049805,-0.9692383,-0.326416,0,0,0,0,0,0
7.66008,0.6046099,-0.9889976,1,-0.2882255,0,0,0,0,0,0,0,0,0,0,0,0,0,0,0.08904219,-0.06366748,-0.008765811,0.008666992,-1.047607,-0.1959229,0,0,0,0,0,0
7.670081,0.433522,-1,1,-0.2324234,0,0,0,0,0,0,0,0,0,0,0,0,0,0,0,0,0,0.03955078,-1.078735,-0.09521484,0,0,0,0,0,0
7.680081,0.2324234,-1,0.9917692,-0.105841,0,0,0,0,0,0,0,0,0,0,0,0,0,0,0,0,0,0.04370117,-1.123657,-0.04748535,0,0,0,0,0,0
7.690081,0.1059862,-1,0.8431824,0.01907653,0,0,0,0,0,0,0,0,0,0,0,0,0,0,-0.00549793,-0.01874294,-0.03873542,0.08496094,-1.036377,-0.09057617,0,0,0,0,0,0
7.700081,0.05884144,-1,0.6777877,0.0622832,0,0,0,0,0,0,0,0,0,0,0,0,0,0,0,0,0,0.1008301,-1.005249,-0.1461182,0,0,0,0,0,0
7.710082,0.035298,-1,0.3860121,0.08613493,0,0,0,0,0,0,0,0,0,0,0,0,0,0,0,0,0,0.07531738,-1.002686,-0.2099609,0,0,0,0,0,0
7.720082,0.035298,-1,0.1712811,0.06335056,0,0,0,0,0,0,0,0,0,0,0,0,0,0,0,0,0,0.05944824,-0.9768066,-0.2020264,0,0,0,0,0,0
7.730082,0.035298,-1,0,0,0,0,0,0,0,0,0,0,0,0,0,0,0,0,0,0,0,0.1193848,-1.031982,-0.2296143,0,0,0,0,0,0
7.740082,0.07454614,-1,0,0,0,0,0,0,0,0,0,0,0,0,0,0,0,0,-0.0154929,0.05797345,0.005497482,0.05712891,-1.056885,-0.1894531,0,0,0,0,0,0
7.750082,0.1374799,-1,0,0,0,0,0,0,0,0,0,0,0,0,0,0,0,0,0,0,0,0.07421875,-1.005005,-0.2023926,0,0,0,0,0,0
7.760083,0.2962267,-1,0,0,0,0,0,0,0,0,0,0,0,0,0,0,0,0,0,0,0,0.1622314,-1.010864,-0.2305908,0,0,0,0,0,0
7.770083,0.523744,-1,0,0,0,0,0,0,0,0,0,0,0,0,0,0,0,0,0.02168385,0.04705856,0.1204146,0.02416992,-1.312012,0.05493164,0,0,0,0,0,0
7.780083,0.6772434,-0.9497437,0,0,0,0,0,0,0,0,0,0,0,0,0,0,0,0,0,0,0,0.0958252,-1.404785,0.18396,0,0,0,0,0,0
7.790083,0.8674718,-0.7475448,0,0,0,0,0,0,0,0,0,0,0,0,0,1,0,0,0,0,0,0.02050781,-1.135132,0.1016846,0,0,0,0,0,0
7.800084,0.9920977,-0.5139784,0,0,0,0,0,0,0,0,0,0,0,0,0,1,0,0,-0.3575528,0.04913468,0.0544403,0.1207275,-0.5515137,-0.04077148,0,0,0,0,0,0
7.810084,1,-0.3444016,0,0,0,0,0,0,0,0,0,0,0,0,0,1,0,0,0,0,0,0.2025146,-0.6397705,-0.3522949,0,0,0,0,0,0
7.820084,1,-0.1059862,0,0,0,0,0,0,0,0,0,0,0,0,0,1,0,0,0,0,0,0.04284668,-0.6861572,-0.4832764,0,0,0,0,0,0
7.830084,1,0.09026043,0,0,0,0,0,0,0,0,0,0,0,0,0,1,0,0,-0.05872789,0.007247271,-0.06522544,-0.04394531,-0.8098145,-0.3859863,0,0,0,0,0,0
7.840085,1,0.1848525,0,0,0,0,0,0,0,0,0,0,0,0,0,1,0,0,0.0467324,0.0252405,-0.01049605,-0.0279541,-0.7215576,-0.4221191,0,0,0,0,0,0
7.850085,0.8842661,0.1969326,0,0,0,0,0,0,0,0,0,0,0,0,0,1,0,0,0,0,0,-0.003540039,-0.807251,-0.442749,0,0,0,0,0,0
7.860085,0.6470372,0.1864345,0,0,0,0,0,0,0,0,0,0,0,0,0,1,0,0,0,0,0,-0.05541992,-0.8795166,-0.3156738,0,0,0,0,0,0
7.870085,0.3636368,0.02175605,0,0,0,0,0,0,0,0,0,0,0,0,0,1,0,0,0.151443,-0.02798946,-0.004498306,-0.111084,-0.8846436,-0.28125,0,0,0,0,0,0
7.880085,0.1609578,-0.08164528,0,0,0,0,0,0,0,0,0,0,0,0,0,1,0,0,0,0,0,-0.03283691,-0.9117432,-0.2672119,0,0,0,0,0,0
7.890086,-0.02118856,-0.33599,0,0,0,0,0,0,0,0,0,0,0,0,0,1,0,0,0,0,0,0.04077148,-0.9031982,-0.2895508,0,0,0,0,0,0
7.900086,-0.2181426,-0.8304729,0,0,0,0,0,0,0,0,0,0,0,0,0,1,0,0,0.1661874,-0.05298005,0.03623636,0.02111816,-1.020386,-0.2399902,0,0,0,0,0,0
7.910086,-0.2962267,-1,0.05050793,-0.005153871,0,0,0,0,0,0,0,0,0,0,0,1,0,0,0,0,0,0.08483887,-1.194702,-0.1287842,0,0,0,0,0,0
7.920086,-0.3524597,-1,0.1519472,-0.01498071,0,0,0,0,0,0,0,0,0,0,0,1,0,0,-0.007843095,-0.03967683,0.03713936,0.07055664,-1.082153,-0.2399902,0,0,0,0,0,0
7.930087,-0.3605264,-1,0.2909479,-0.03744874,0,0,0,0,0,0,0,0,0,0,0,1,0,0,0,0,0,0.05517578,-1.045288,-0.2906494,0,0,0,0,0,0
7.940087,-0.3283107,-1,0.4205687,-0.06194422,0,0,0,0,0,0,0,0,0,0,0,1,0,0,0,0,0,0.07421875,-1.061279,-0.276001,0,0,0,0,0,0
7.950087,-0.20075,-0.7840613,0.6146163,-0.09704468,0,0,0,0,0,0,0,0,0,0,0,1,0,0,0,0,0,0.1275635,-1.099854,-0.1988525,0,0,0,0,0,0
7.960087,-0.05638328,-0.4477496,0.7529272,-0.1161231,0,0,0,0,0,0,0,0,0,0,0,1,0,0,0,0,0,0.1586914,-1.097412,-0.173584,0,0,0,0,0,0
7.970088,0.04582515,0.02664253,1,-0.1690417,0,0,0,0,0,0,0,0,0,0,0,1,0,0,0,0,0,0.1279297,-1.020508,-0.2213135,0,0,0,0,0,0
7.980088,0.3306971,0.3240164,1,-0.1848525,0,0,0,0,0,0,0,0,0,0,0,1,0,0,0,0,0,0.06298828,-1.058228,-0.157959,0,0,0,0,0,0
7.990088,0.8142135,0.8463007,1,-0.2086106,0,0,0,0,0,0,0,0,0,0,0,1,0,0,0,0,0,-0.0859375,-0.4344482,-0.3657227,0,0,0,0,0,0
8.000088,0.8302338,0.8302338,1,-0.2324234,0,0,0,0,0,0,0,0,0,0,0,1,0,0,0,0,0,-0.2718506,-0.9569092,-0.4851074,0,0,0,0,0,0
8.010088,0.8302338,0.8302338,1,-0.2403741,0,0,0,0,0,0,0,0,0,0,0,1,0,0,0.01099586,0.03548664,-0.02449078,0.01049805,-1.053589,-0.1621094,0,0,0,0,0,0
8.020088,0.8302338,0.8302338,1,-0.2403741,0,0,0,0,0,0,0,0,0,0,0,1,0,0,0,0,0,-0.008300781,-0.9796143,-0.15979,0,0,0,0,0,0
8.030088,0.8302338,0.8302338,1,-0.2403741,0,0,0,0,0,0,0,0,0,0,0,1,0,0,0,0,0,-0.03869629,-0.9639893,-0.2305908,0,0,0,0,0,0
8.040089,0.8216138,0.8296295,1,-0.2403741,0,0,0,0,0,0,0,0,0,0,0,1,0,0,-0.006459019,0.01522483,-0.03990751,0.002197266,-1.003906,-0.1826172,0,0,0,0,0,0
8.050089,0.8130026,0.8290224,1,-0.2403741,0,0,0,0,0,0,0,0,0,0,0,1,0,0,0,0,0,0.02111816,-1.028442,-0.2023926,0,0,0,0,0,0
8.060089,0.7810984,0.8612111,1,-0.2403741,0,0,0,0,0,0,0,0,0,0,0,1,0,0,0,0,0,0.06274414,-1.009644,-0.2016602,0,0,0,0,0,0
8.070089,0.7487553,0.8848926,1,-0.2403741,0,0,0,0,0,0,0,0,0,0,0,1,0,0,-0.02923899,0.04773203,0.001249529,0.07861328,-0.9750977,-0.1959229,0,0,0,0,0,0
8.08009,0.7080969,0.9081243,1,-0.2403741,0,0,0,0,0,0,0,0,0,0,0,1,0,0,0,0,0,0.07214355,-0.9904785,-0.220459,0,0,0,0,0,0
8.09009,0.6520168,0.9480243,1,-0.2403741,0,0,0,0,0,0,0,0,0,0,0,1,0,0,0,0,0,0.08215332,-0.9647217,-0.211792,0,0,0,0,0,0
8.10009,0.5552751,0.9947014,1,-0.2403741,0,0,0,0,0,0,0,0,0,0,0,1,0,0,0.01599398,0.0507309,0.04448325,0.1005859,-0.9650879,-0.2049561,0,0,0,0,0,0
8.11009,0.4825947,1,1,-0.2324234,0,0,0,0,0,0,0,0,0,0,0,1,0,0,0,0,0,0.1005859,-0.9849854,-0.2119141,0,0,0,0,0,0
8.12009,0.3766855,1,1,-0.2086106,0,0,0,0,0,0,0,0,0,0,0,1,0,0,0,0,0,0.09313965,-0.9962158,-0.2021484,0,0,0,0,0,0
8.130091,0.3122526,1,1,-0.1453634,0,0,0,0,0,0,0,0,0,0,0,1,0,0,0.03873226,0.04298032,0.09370708,0.005615234,-0.9588623,-0.2381592,0,0,0,0,0,0
8.140091,0.3042357,1,0.945716,-0.1050796,0,0,0,0,0,0,0,0,0,0,0,1,0,0,0,0,0,-0.05029297,-0.9227295,-0.2817383,0,0,0,0,0,0
8.150091,0.2882255,1,0.7327936,-0.04835694,0,0,0,0,0,0,0,0,0,0,0,1,0,0,0,0,0,-0.05737305,-0.9122314,-0.3056641,0,0,0,0,0,0
8.160091,0.2244794,1,0.5017301,0,0,0,0,0,0,0,0,0,0,0,0,1,0,0,0.08146269,0.02798718,0.0009995422,-0.05993652,-0.9423828,-0.2929688,0,0,0,0,0,0
8.170092,0.1690417,1,0.3178067,0.0267314,0,0,0,0,0,0,0,0,0,0,0,1,0,0,0,0,0,-0.04541016,-0.946167,-0.2613525,0,0,0,0,0,0
8.180092,0.08240198,1,0.02742006,0.007014433,0,0,0,0,0,0,0,0,0,0,0,1,0,0,0,0,0,-0.01953125,-0.9547119,-0.2180176,0,0,0,0,0,0
8.190092,0.01176485,1,0,0,0,0,0,0,0,0,0,0,0,0,0,1,0,0,0,0,0,0.009887695,-1.000854,-0.194458,0,0,0,0,0,0
8.200092,-0.1374799,1,0,0,0,0,0,0,0,0,0,0,0,0,0,1,0,0,0,0,0,-0.001098633,-0.9821777,-0.1833496,0,0,0,0,0,0
8.210093,-0.3122526,1,0,0,0,0,0,0,0,0,0,0,0,0,0,1,0,0,0.09071584,0.00674746,-0.03773579,0.01135254,-0.9741211,-0.1560059,0,0,0,0,0,0
8.220093,-0.4091095,1,0,0,0,0,0,0,0,0,0,0,0,0,0,1,0,0,0,0,0,0.03393555,-0.9765625,-0.1602783,0,0,0,0,0,0
8.230093,-0.5154955,1,0,0,0,0,0,0,0,0,0,0,0,0,0,1,0,0,0,0,0,0.05310059,-0.9925537,-0.152832,0,0,0,0,0,0
8.240093,-0.5718616,0.995759,0,0,0,0,0,0,0,0,0,0,0,0,0,1,0,0,0.07247271,-0.0004998118,-0.01499435,0.04406738,-0.9852295,-0.144165,0,0,0,0,0,0
8.250093,-0.5874074,0.9790122,0,0,0,0,0,0,0,0,0,0,0,0,0,1,0,0,0,0,0,0.04919434,-0.9953613,-0.1516113,0,0,0,0,0,0
8.260094,-0.6196507,0.9634567,0,0,0,0,0,0,0,0,0,0,0,0,0,1,0,0,0,0,0,0.06848145,-1.014038,-0.1470947,0,0,0,0,0,0
8.270094,-0.6274477,0.9551592,0,0,0,0,0,0,0,0,0,0,0,0,0,1,0,0,0.04348009,0.01149474,0.00449794,0.05603027,-1.024902,-0.1578369,0,0,0,0,0,0
8.280094,-0.6274477,0.9551592,0,0,0,0,0,0,0,0,0,0,0,0,0,1,0,0,0,0,0,0.05383301,-1.017944,-0.1746826,0,0,0,0,0,0
8.290094,-0.6274477,0.9551592,0,0,0,0,0,0,0,0,0,0,0,0,0,1,0,0,0,0,0,0.05310059,-1.01001,-0.1947021,0,0,0,0,0,0
8.300095,-0.6274477,0.9551592,0,0,0,0,0,0,0,0,0,0,0,0,0,1,0,0,0,0,0,0.03723145,-1.012329,-0.2230225,0,0,0,0,0,0
8.310095,-0.6274477,0.9551592,0,0,0,0,0,0,0,0,0,0,0,0,0,1,0,0,0,0,0,0.03735352,-1.023438,-0.2091064,0,0,0,0,0,0
8.320095,-0.6274477,0.9551592,0,0,0,0,0,0,0,0,0,0,0,0,0,1,0,0,0,0,0,0.03967285,-1.028931,-0.2010498,0,0,0,0,0,0
8.330095,-0.6280115,0.9640176,0,0,0,0,0,0,0,0,0,0,0,0,0,1,0,0,0,0,0,0.03723145,-1.015625,-0.2133789,0,0,0,0,0,0
8.340096,-0.6207611,0.981203,0,0,0,0,0,0,0,0,0,0,0,0,0,1,0,0,0,0,0,0.0267334,-1.021484,-0.2121582,0,0,0,0,0,0
8.350096,-0.6207611,0.981203,0,0,0,0,0,0,0,0,0,0,0,0,0,1,0,0,-0.00899649,-0.01937706,-0.006459019,0.02893066,-1.035156,-0.1848145,0,0,0,0,0,0
8.360096,-0.6207611,0.981203,0,0,0,0,0,0,0,0,0,0,0,0,0,1,0,0,0,0,0,0.008789063,-1.03418,-0.1796875,0,0,0,0,0,0
8.370096,-0.6447625,0.9651414,0,0,0,0,0,0,0,0,0,0,0,0,0,1,0,0,0,0,0,0.02258301,-0.9813232,-0.2243652,0,0,0,0,0,0
8.380096,-0.6839312,0.923907,0,0,0,0,0,0,0,0,0,0,0,0,0,1,0,0,-0.0133794,-0.01199532,-0.03252577,0.04577637,-0.9655762,-0.2137451,0,0,0,0,0,0
8.390097,-0.6990393,0.8987648,0,0,0,0,0,0,0,0,0,0,0,0,0,1,0,0,0,0,0,0.05969238,-0.9490967,-0.2021484,0,0,0,0,0,0
8.400097,-0.7220283,0.8656361,0,0,0,0,0,0,0,0,0,0,0,0,0,1,0,0,0,0,0,0.08166504,-0.8986816,-0.2105713,0,0,0,0,0,0
8.410097,-0.7529836,0.8246963,0,0,0,0,0,0,0,0,0,0,0,0,0,1,0,0,0.0422341,-0.01199548,-0.03223786,0.09667969,-0.8894043,-0.1745605,0,0,0,0,0,0
8.420097,-0.7688331,0.808669,0,0,0,0,0,0,0,0,0,0,0,0,0,1,0,0,0,0,0,0.03747559,-0.8973389,-0.1503906,0,0,0,0,0,0
8.430098,-0.7761437,0.7920645,0,0,0,0,0,0,0,0,0,0,0,0,0,1,0,0,0,0,0,0.04272461,-0.9626465,-0.12146,0,0,0,0,0,0
8.440098,-0.7847294,0.7926962,0,0,0,0,0,0,0,0,0,0,0,0,0,1,0,0,0,0,0,0.01611328,-0.9456787,-0.1170654,0,0,0,0,0,0
8.450098,-0.8123925,0.8203964,0,0,0,0,0,0,0,0,0,0,0,0,0,0,0,0,0,0,0,0.04211426,-0.9200439,-0.1352539,0,0,0,0,0,0
8.460098,-0.765208,0.877385,0,0,0,0,0,0,0,0,0,0,0,0,0,0,0,0,0,0,0,0.02770996,-1.1073,-0.1152344,0,0,0,0,0,0
8.470098,-0.680935,0.8800389,0,0,0,0,0,0,0,0,0,0,0,0,0,0,0,0,0,0,0,0.02368164,-0.9034424,-0.1025391,0,0,0,0,0,0
8.480099,-0.2726204,0.6983563,0.01566844,-0.01281963,0,0,0,0,0,0,0,0,0,0,0,0,0,0,0,0,0,0.01269531,-0.9255371,-0.2598877,0,0,0,0,0,0
8.490099,0.3227367,0.3227367,0.01969063,-0.01730388,0,0,0,0,0,0,0,0,0,0,0,0,0,0,0.1663197,0.04936536,0.01614755,-0.06396484,-1.030273,-0.2390137,0,0,0,0,0,0
8.500099,0.7317298,0.236405,0.02362888,-0.02219683,0,0,0,0,0,0,0,0,0,0,0,0,0,0,0,0,0,-0.04797363,-1.19873,-0.06225586,0,0,0,0,0,0
8.510099,1,0.1611441,0.07716605,-0.07030685,0,0,0,0,0,0,0,0,0,0,0,0,0,0,0,0,0,-0.09289551,-1.18042,-0.09631348,0,0,0,0,0,0
8.5201,1,0.1296006,0.1783889,-0.1370234,0,0,0,0,0,0,0,0,0,0,0,0,0,0,-0.01914638,-0.01822366,-0.001153396,0.05505371,-1.143677,-0.1159668,0,0,0,0,0,0
8.5301,1,0.02745281,0.2584531,-0.1871557,0,0,0,0,0,0,0,0,0,0,0,0,0,0,0,0,0,-0.0357666,-1.135986,-0.07800293,0,0,0,0,0,0
8.5401,1,-0.2244794,0.3946996,-0.2732536,0,0,0,0,0,0,0,0,0,0,0,0,0,0,0,0,0,0.007080078,-1.133179,-0.1240234,0,0,0,0,0,0
8.5501,0.9866543,-0.423984,0.50129,-0.3164171,0,0,0,0,0,0,0,0,0,0,0,0,0,0,0,0,0,-0.0135498,-1.029175,-0.204834,0,0,0,0,0,0
8.560101,0.8234377,-0.7359226,0.6897893,-0.3807034,0,0,0,0,0,0,0,0,0,0,0,0,0,0,0,0,0,0.005737305,-0.9851074,-0.2098389,0,0,0,0,0,0
8.570101,0.5951821,-0.9706661,0.9505916,-0.4220469,0,0,0,0,0,0,0,0,0,0,0,0,0,0,0,0,0,-0.002685547,-1.032104,-0.04187012,0,0,0,0,0,0
8.580101,0.4253754,-1,0.9776322,-0.4235087,0,0,0,0,0,0,0,0,0,0,0,0,0,0,0,0,0,-0.142334,-1.121094,0.144043,0,0,0,0,0,0
8.590101,0.2006854,-1,1,-0.3762585,0,0,0,0,0,0,0,0,0,0,0,0,0,0,0,0,0,0.1617432,-1.077515,0.08105469,0,0,0,0,0,0
8.600101,0.1059862,-1,1,-0.336352,0,0,0,0,0,0,0,0,0,0,0,0,0,0,-0.2470575,-0.05905389,-0.1181078,0.1906738,-1.072266,-0.08007813,0,0,0,0,0,0
8.610102,0.003921574,-1,1,-0.2882255,0,0,0,0,0,0,0,0,0,0,0,1,0,0,0,0,0,0.08203125,-0.9046631,-0.291626,0,0,0,0,0,0
8.620102,-0.01960851,-1,1,-0.2722459,0,0,0,0,0,0,0,0,0,0,0,1,0,0,0,0,0,0.04663086,-0.8830566,-0.3101807,0,0,0,0,0,0
8.630102,-0.02745281,-1,1,-0.2642672,0,0,0,0,0,0,0,0,0,0,0,1,0,0,0,0,0,-0.009033203,-0.7724609,-0.2962646,0,0,0,0,0,0
8.640102,-0.02745281,-1,1,-0.2642672,0,0,0,0,0,0,0,0,0,0,0,1,0,0,-0.1077272,-0.03760071,-0.02791219,0.09082031,-0.8620605,-0.3427734,0,0,0,0,0,0
8.650103,0.01176485,-1,1,-0.2642672,0,0,0,0,0,0,0,0,0,0,0,1,0,0,0,0,0,0.1097412,-0.8953857,-0.2900391,0,0,0,0,0,0
8.660103,0.09812176,-1,1,-0.2642672,0,0,0,0,0,0,0,0,0,0,0,1,0,0,0,0,0,0.1037598,-0.9735107,-0.244873,0,0,0,0,0,0
8.670103,0.1927661,-1,1,-0.2642672,0,0,0,0,0,0,0,0,0,0,0,1,0,0,-0.01568619,0.01084192,0.03321781,0.08618164,-0.9832764,-0.251709,0,0,0,0,0,0
8.680103,0.2244794,-1,1,-0.2642672,0,0,0,0,0,0,0,0,0,0,0,1,0,0,0,0,0,0.07189941,-0.9665527,-0.2598877,0,0,0,0,0,0
8.690104,0.2642672,-1,1,-0.2642672,0,0,0,0,0,0,0,0,0,0,0,1,0,0,0,0,0,0.06726074,-0.9592285,-0.2696533,0,0,0,0,0,0
8.700104,0.2802319,-1,1,-0.2642672,0,0,0,0,0,0,0,0,0,0,0,1,0,0,-0.003748589,0.004998118,0.03648626,0.06347656,-0.9997559,-0.2438965,0,0,0,0,0,0
8.710104,0.2802319,-1,1,-0.2562958,0,0,0,0,0,0,0,0,0,0,0,1,0,0,0,0,0,0.0567627,-1.016724,-0.2497559,0,0,0,0,0,0
8.720104,0.2722459,-1,1,-0.2483314,0,0,0,0,0,0,0,0,0,0,0,1,0,0,0,0,0,0.05895996,-1.025146,-0.2570801,0,0,0,0,0,0
8.730104,0.2483314,-1,1,-0.2403741,0,0,0,0,0,0,0,0,0,0,0,1,0,0,-0.02898908,-0.001999247,0.004248401,0.04492188,-1.021362,-0.2414551,0,0,0,0,0,0
8.740105,0.2086106,-1,1,-0.2324234,0,0,0,0,0,0,0,0,0,0,0,1,0,0,0,0,0,0.05200195,-1.031738,-0.2296143,0,0,0,0,0,0
8.750105,0.1532514,-1,1,-0.2244794,0,0,0,0,0,0,0,0,0,0,0,1,0,0,0,0,0,0.03515625,-1.023315,-0.2010498,0,0,0,0,0,0
8.760105,0.09026043,-1,1,-0.2244794,0,0,0,0,0,0,0,0,0,0,0,1,0,0,-0.04598268,-0.01549417,0.003998494,0.03430176,-0.9907227,-0.2119141,0,0,0,0,0,0
8.770105,0.04314433,-1,1,-0.2244794,0,0,0,0,0,0,0,0,0,0,0,1,0,0,0,0,0,0.02587891,-0.9724121,-0.230957,0,0,0,0,0,0
8.780106,-0.02745281,-1,1,-0.2165419,0,0,0,0,0,0,0,0,0,0,0,1,0,0,0,0,0,0.0291748,-0.9355469,-0.2414551,0,0,0,0,0,0
8.790106,-0.1059862,-1,1,-0.2086106,0,0,0,0,0,0,0,0,0,0,0,1,0,0,-0.02191453,-0.02537472,-0.001614755,0.02868652,-0.9211426,-0.2224121,0,0,0,0,0,0
8.800106,-0.1690417,-1,1,-0.2006854,0,0,0,0,0,0,0,0,0,0,0,1,0,0,0,0,0,0.02478027,-0.9368896,-0.213501,0,0,0,0,0,0
8.810106,-0.2324234,-1,1,-0.1848525,0,0,0,0,0,0,0,0,0,0,0,1,0,0,0,0,0,0.03857422,-0.9354248,-0.215332,0,0,0,0,0,0
8.820107,-0.2802319,-1,1,-0.1769445,0,0,0,0,0,0,0,0,0,0,0,1,0,0,0,0,0,0.0357666,-0.9627686,-0.2255859,0,0,0,0,0,0
8.830107,-0.3042357,-1,1,-0.1690417,0,0,0,0,0,0,0,0,0,0,0,1,0,0,-0.004613584,-0.005766981,-0.008073773,0.0324707,-0.9624023,-0.2362061,0,0,0,0,0,0
8.840107,-0.3042357,-1,1,-0.1611441,0,0,0,0,0,0,0,0,0,0,0,1,0,0,0,0,0,0.03503418,-0.9760742,-0.2341309,0,0,0,0,0,0
8.850107,-0.3042357,-1,1,-0.1453634,0,0,0,0,0,0,0,0,0,0,0,1,0,0,0,0,0,0.03540039,-0.9675293,-0.2600098,0,0,0,0,0,0
8.860107,-0.2962267,-1,1,-0.1374799,0,0,0,0,0,0,0,0,0,0,0,1,0,0,-0.002748965,0.005747836,-0.008246895,0.04504395,-0.9718018,-0.2641602,0,0,0,0,0,0
8.870108,-0.2483314,-1,1,-0.1296006,0,0,0,0,0,0,0,0,0,0,0,1,0,0,0,0,0,0.04797363,-0.9769287,-0.2563477,0,0,0,0,0,0
8.880108,-0.1769445,-1,1,-0.1296006,0,0,0,0,0,0,0,0,0,0,0,1,0,0,0,0,0,0.0526123,-0.973877,-0.2410889,0,0,0,0,0,0
8.890108,-0.04314433,-1,1,-0.1296006,0,0,0,0,0,0,0,0,0,0,0,1,0,0,-0.007747083,0.01749341,0.00674746,0.0526123,-0.958374,-0.2503662,0,0,0,0,0,0
8.900108,0.06669273,-1,1,-0.1296006,0,0,0,0,0,0,0,0,0,0,0,1,0,0,0,0,0,0.05053711,-0.9521484,-0.2667236,0,0,0,0,0,0
8.910109,0.2642672,-1,1,-0.1296006,0,0,0,0,0,0,0,0,0,0,0,1,0,0,0,0,0,0.04931641,-0.9720459,-0.2618408,0,0,0,0,0,0
8.920109,0.4825947,-1,1,-0.1296006,0,0,0,0,0,0,0,0,0,0,0,1,0,0,0,0,0,0.06408691,-0.9868164,-0.2365723,0,0,0,0,0,0
8.930109,0.6531526,-0.965704,1,-0.1296006,0,0,0,0,0,0,0,0,0,0,0,1,0,0,0,0,0,0.0703125,-0.9910889,-0.2258301,0,0,0,0,0,0
8.940109,0.8668616,-0.7390295,1,-0.1296006,0,0,0,0,0,0,0,0,0,0,0,1,0,0,0,0,0,0.07946777,-0.9973145,-0.2194824,0,0,0,0,0,0
8.950109,1,-0.4416777,1,-0.1296006,0,0,0,0,0,0,0,0,0,0,0,1,0,0,-0.01324501,0.01974257,0.03773579,0.05749512,-0.9986572,-0.2275391,0,0,0,0,0,0
8.96011,1,-0.2244794,1,-0.1296006,0,0,0,0,0,0,0,0,0,0,0,1,0,0,0,0,0,0.03479004,-0.9671631,-0.2609863,0,0,0,0,0,0
8.97011,1,0.02745281,1,-0.1296006,0,0,0,0,0,0,0,0,0,0,0,1,0,0,0,0,0,0.006103516,-0.9550781,-0.2810059,0,0,0,0,0,0
8.98011,1,0.2165419,1,-0.1296006,0,0,0,0,0,0,0,0,0,0,0,1,0,0,0.01960774,0.03321781,0.03690867,0.01098633,-0.9246826,-0.2613525,0,0,0,0,0,0
8.99011,1,0.2962267,1,-0.1296006,0,0,0,0,0,0,0,0,0,0,0,1,0,0,0,0,0,0.001342773,-0.9204102,-0.2786865,0,0,0,0,0,0
9.000111,1,0.3847782,1,-0.1296006,0,0,0,0,0,0,0,0,0,0,0,1,0,0,0,0,0,0.01989746,-0.967041,-0.2528076,0,0,0,0,0,0
9.010111,1,0.4990265,1,-0.1296006,0,0,0,0,0,0,0,0,0,0,0,1,0,0,0.05672402,0.05347551,0.01774187,0.05041504,-1.004761,-0.2286377,0,0,0,0,0,0
9.020111,0.9863042,0.563032,1,-0.1296006,0,0,0,0,0,0,0,0,0,0,0,1,0,0,0,0,0,0.05578613,-1.016479,-0.2261963,0,0,0,0,0,0
9.030111,0.9303717,0.6508609,1,-0.1296006,0,0,0,0,0,0,0,0,0,0,0,1,0,0,0,0,0,0.04675293,-1.044922,-0.201416,0,0,0,0,0,0
9.040112,0.8743551,0.7226405,1,-0.1296006,0,0,0,0,0,0,0,0,0,0,0,1,0,0,0.03573654,0.04348363,0.03123824,0.0513916,-1.015869,-0.225708,0,0,0,0,0,0
9.050112,0.8507007,0.7548471,1,-0.1296006,0,0,0,0,0,0,0,0,0,0,0,1,0,0,0,0,0,0.02880859,-0.99646,-0.243042,0,0,0,0,0,0
9.060112,0.8179268,0.778028,1,-0.113854,0,0,0,0,0,0,0,0,0,0,0,1,0,0,0,0,0,0.001831055,-0.9822998,-0.2497559,0,0,0,0,0,0
9.070112,0.810544,0.7945727,1,-0.06669273,0,0,0,0,0,0,0,0,0,0,0,1,0,0,0,0,0,-0.001342773,-0.9951172,-0.2192383,0,0,0,0,0,0
9.080112,0.8025521,0.8025521,1,0.05099206,0,0,0,0,0,0,0,0,0,0,0,1,0,0,0,0,0,0.0189209,-0.9989014,-0.1945801,0,0,0,0,0,0
9.090113,0.7866051,0.8185484,1,0.2086106,0,0,0,0,0,0,0,0,0,0,0,1,0,0,0.01960774,0.012226,0.008765811,0.02233887,-1.030151,-0.1960449,0,0,0,0,0,0
9.100113,0.7707045,0.8345971,1,0.3202776,0,0,0,0,0,0,0,0,0,0,0,1,0,0,0,0,0,0.01477051,-1.038696,-0.194458,0,0,0,0,0,0
9.110113,0.7396386,0.8755721,0.8988146,0.4513698,0,0,0,0,0,0,0,0,0,0,0,1,0,0,0,0,0,0.03344727,-1.001587,-0.1791992,0,0,0,0,0,0
9.120113,0.6827472,0.9063369,0.7305269,0.5449963,0,0,0,0,0,0,0,0,0,0,0,1,0,0,-0.01430211,-0.001153396,-0.002306792,0.04174805,-0.9875488,-0.1855469,0,0,0,0,0,0
9.130114,0.6430523,0.9386168,0.6156613,0.5927174,0,0,0,0,0,0,0,0,0,0,0,1,0,0,0,0,0,0.06347656,-0.9764404,-0.2108154,0,0,0,0,0,0
9.140114,0.5387272,0.9936524,0.4636289,0.6370186,0,0,0,0,0,0,0,0,0,0,0,1,0,0,0,0,0,0.06103516,-0.9682617,-0.2054443,0,0,0,0,0,0
9.150114,0.4580168,1,0.3690982,0.6449897,0,0,0,0,0,0,0,0,0,0,0,1,0,0,0,0,0,0.0736084,-0.9451904,-0.2175293,0,0,0,0,0,0
9.160114,0.336352,1,0.2302729,0.6323367,0,0,0,0,0,0,0,0,0,0,0,1,0,0,0,0,0,0.04504395,-0.9411621,-0.2155762,0,0,0,0,0,0
9.170115,0.2324234,1,0.08981185,0.614313,0,0,0,0,0,0,0,0,0,0,0,1,0,0,0.02748965,0.0009996236,0.0009996236,0.02990723,-0.9527588,-0.2351074,0,0,0,0,0,0
9.180115,0.1611441,1,-0.03154955,0.5573755,0,0,0,0,0,0,0,0,0,0,0,1,0,0,0,0,0,0.03894043,-0.9597168,-0.2336426,0,0,0,0,0,0
9.190115,0.1059862,1,-0.2178077,0.4805598,0,0,0,0,0,0,0,0,0,0,0,1,0,0,0,0,0,0.03979492,-0.9685059,-0.211792,0,0,0,0,0,0
9.200115,0.09026043,1,-0.3482533,0.4467492,0,0,0,0,0,0,0,0,0,0,0,1,0,0,0,0,0,0.03662109,-0.9766846,-0.2071533,0,0,0,0,0,0
9.210115,0.09026043,1,-0.5072373,0.4342535,0,0,0,0,0,0,0,0,0,0,0,1,0,0,0,0,0,0.03613281,-0.9790039,-0.1989746,0,0,0,0,0,0
9.220116,0.08240198,1,-0.6401176,0.4080282,0,0,0,0,0,0,0,0,0,0,0,1,0,0,0,0,0,0.03833008,-0.963501,-0.2039795,0,0,0,0,0,0
9.230116,0.09812176,1,-0.7163314,0.3828014,0,0,0,0,0,0,0,0,0,0,0,1,0,0,0,0,0,0.05163574,-0.9735107,-0.1948242,0,0,0,0,0,0
9.240116,0.1927661,1,-0.7928964,0.3409072,0,0,0,0,0,0,0,0,0,0,0,1,0,0,0,0,0,0.05664063,-0.9752197,-0.177124,0,0,0,0,0,0
9.250116,0.3928797,1,-0.8353298,0.3041063,0,0,0,0,0,0,0,0,0,0,0,1,0,0,0,0,0,0.03515625,-0.9631348,-0.2033691,0,0,0,0,0,0
9.260117,0.5646105,1,-0.8420665,0.2653086,0,0,0,0,0,0,0,0,0,0,0,1,0,0,0,0,0,-0.004272461,-0.9666748,-0.2332764,0,0,0,0,0,0
9.270117,0.7878387,0.8358289,-0.8839523,0.1891426,0,0,0,0,0,0,0,0,0,0,0,1,0,0,0,0,0,-0.05895996,-0.994873,-0.2514648,0,0,0,0,0,0
9.280117,0.8593862,0.7554604,-0.9280447,0.1359061,0,0,0,0,0,0,0,0,0,0,0,1,0,0,0.03098833,0.0127452,-0.01074595,-0.01147461,-1.016846,-0.2340088,0,0,0,0,0,0
9.290117,0.9397725,0.6598403,-1,0.02745281,0,0,0,0,0,0,0,0,0,0,0,1,0,0,0.01174558,-0.0004998118,-0.01224539,0.0489502,-1.01001,-0.1799316,0,0,0,0,0,0
9.300117,0.9640176,0.6280115,-1,-0.02745281,0,0,0,0,0,0,0,0,0,0,0,1,0,0,0,0,0,0.08703613,-1.02478,-0.1748047,0,0,0,0,0,0
9.310118,0.979558,0.5957312,-1,-0.05099206,0,0,0,0,0,0,0,0,0,0,0,1,0,0,0,0,0,0.06445313,-1.039307,-0.2108154,0,0,0,0,0,0
9.320118,0.9879154,0.5879496,-1,-0.07454614,0,0,0,0,0,0,0,0,0,0,0,1,0,0,0,0,0,0.05651855,-1.032593,-0.2186279,0,0,0,0,0,0
9.330118,0.9873765,0.579634,-1,-0.08240198,0,0,0,0,0,0,0,0,0,0,0,1,0,0,0,0,0,0.05236816,-1.016113,-0.2302246,0,0,0,0,0,0
9.340118,0.9873765,0.579634,-1,-0.08240198,0,0,0,0,0,0,0,0,0,0,0,1,0,0,0,0,0,0.05419922,-0.9865723,-0.2324219,0,0,0,0,0,0
9.350119,0.9873765,0.579634,-1,-0.08240198,0,0,0,0,0,0,0,0,0,0,0,1,0,0,0,0,0,0.03283691,-0.9813232,-0.2362061,0,0,0,0,0,0
9.360119,0.9873765,0.579634,-1,-0.08240198,0,0,0,0,0,0,0,0,0,0,0,1,0,0,0.02599021,-0.009496424,0.03198795,0.01049805,-0.9941406,-0.2165527,0,0,0,0,0,0
9.370119,0.9784681,0.5790934,-1,-0.08240198,0,0,0,0,0,0,0,0,0,0,0,1,0,0,0,0,0,0.01196289,-0.9782715,-0.2176514,0,0,0,0,0,0
9.380119,0.922732,0.6670833,-1,-0.08240198,0,0,0,0,0,0,0,0,0,0,0,1,0,0,0,0,0,0.01977539,-0.9846191,-0.1970215,0,0,0,0,0,0
9.39012,0.8743551,0.7226405,-1,-0.08240198,0,0,0,0,0,0,0,0,0,0,0,1,0,0,0,0,0,0.02111816,-0.9844971,-0.1778564,0,0,0,0,0,0
9.40012,0.7872236,0.8271842,-1,-0.05099206,0,0,0,0,0,0,0,0,0,0,0,1,0,0,0,0,0,0.0007324219,-0.9887695,-0.1604004,0,0,0,0,0,0
9.41012,0.6676687,0.9315377,-1,0.035298,0,0,0,0,0,0,0,0,0,0,0,1,0,0,0.002537472,-0.01407143,-0.02145317,-0.002197266,-0.9934082,-0.1704102,0,0,0,0,0,0
9.42012,0.5469962,0.9941757,-1,0.1059862,0,0,0,0,0,0,0,0,0,0,0,1,0,0,0,0,0,0.0008544922,-0.9874268,-0.1860352,0,0,0,0,0,0
9.43012,0.3042357,1,-1,0.1927661,0,0,0,0,0,0,0,0,0,0,0,1,0,0,0,0,0,0.04772949,-1.01416,-0.21875,0,0,0,0,0,0
9.440121,0.09026043,1,-1,0.2086106,0,0,0,0,0,0,0,0,0,0,0,1,0,0,0,0,0,0.04931641,-0.9953613,-0.2045898,0,0,0,0,0,0
9.450121,-0.2403741,1,-1,0.2165419,0,0,0,0,0,0,0,0,0,0,0,1,0,0,0,0,0,0.02307129,-0.9689941,-0.2231445,0,0,0,0,0,0
9.460121,-0.4908059,1,-1,0.2244794,0,0,0,0,0,0,0,0,0,0,0,1,0,0,0.03373455,-0.01774187,0.0172421,0.01379395,-0.9858398,-0.2081299,0,0,0,0,0,0
9.470121,-0.6268787,0.9463074,-1,0.2324234,0,0,0,0,0,0,0,0,0,0,0,1,0,0,0.03023862,-0.02649003,0.02199172,0.02294922,-0.9527588,-0.1893311,0,0,0,0,0,0
9.480122,-0.69783,0.8812595,-1,0.2324234,0,0,0,0,0,0,0,0,0,0,0,1,0,0,0,0,0,0.02392578,-0.9602051,-0.1861572,0,0,0,0,0,0
9.490122,-0.7840977,0.7840977,-1,0.2403741,0,0,0,0,0,0,0,0,0,0,0,1,0,0,0,0,0,0.006347656,-0.9799805,-0.1831055,0,0,0,0,0,0
9.500122,-0.8631671,0.6881471,-1,0.2483314,0,0,0,0,0,0,0,0,0,0,0,1,0,0,0.02449078,-0.02649003,0.006997366,0.003417969,-0.9760742,-0.1920166,0,0,0,0,0,0
9.510122,-0.9021508,0.6239545,-1,0.2483314,0,0,0,0,0,0,0,0,0,0,0,1,0,0,0,0,0,0.005249023,-0.9477539,-0.2076416,0,0,0,0,0,0
9.520123,-0.9400869,0.5354926,-1,0.2562958,0,0,0,0,0,0,0,0,0,0,0,1,0,0,0,0,0,0.004882813,-0.9510498,-0.1987305,0,0,0,0,0,0
9.530123,-0.9700872,0.447428,-1,0.2562958,0,0,0,0,0,0,0,0,0,0,0,1,0,0,0.03206441,-0.01407143,-0.01453279,0.001831055,-0.9804688,-0.2058105,0,0,0,0,0,0
9.540123,-0.9852591,0.3996432,-1,0.2562958,0,0,0,0,0,0,0,0,0,0,0,1,0,0,0,0,0,-0.01721191,-1.005005,-0.1879883,0,0,0,0,0,0
9.550123,-0.9900739,0.3195059,-1,0.2562958,0,0,0,0,0,0,0,0,0,0,0,1,0,0,0,0,0,0.007080078,-1.029785,-0.1806641,0,0,0,0,0,0
9.560123,-0.9973364,0.2798849,-1,0.2642672,0,0,0,0,0,0,0,0,0,0,0,1,0,0,0,0,0,0.01916504,-1.042847,-0.1693115,0,0,0,0,0,0
