Timestamp, Left Stick X, Left Stick Y, Right Stick X, Right Stick Y, D-Pad Up, D-Pad Right,D-Pad Down, D-Pad Left, Button North, Button East, Button South, Button West, L1, R1, L2, R2, L3, R3,Gyroscope X, Gyroscope Y, Gyroscope Z, Accelerometer X, Accelerometer Y, Accelerometer Z,Touch 1, Touch 2, Touch 1 Pos X, Touch 1 Pos Y, Touch 2 Pos X, Touch 2 Pos Y
0,0.3847782,1,-0.7232413,0.01854465,0,0,0,0,0,0,0,0,0,0,0,1,0,0,-0.01749341,0.003248777,-0.01049605,0.02539063,-0.9493408,-0.1806641,0,0,0,0,0,0
0.003333333,0.3444016,1,-0.7509196,0.01867959,0,0,0,0,0,0,0,0,0,0,0,1,0,0,0,0,0,0.03308105,-0.9555664,-0.1955566,0,0,0,0,0,0
0.006666667,0.3042357,1,-0.7970507,0.01888746,0,0,0,0,0,0,0,0,0,0,0,1,0,0,-0.02076296,0.006920988,-0.001614897,0.0579834,-0.9699707,-0.2047119,0,0,0,0,0,0
0.01,0.2562958,1,-0.8247297,0.01900299,0,0,0,0,0,0,0,0,0,0,0,1,0,0,0,0,0,0.0670166,-0.9647217,-0.2042236,0,0,0,0,0,0
0.01333333,0.2006854,1,-0.8524088,0.01911231,0,0,0,0,0,0,0,0,0,0,0,1,0,0,-0.03448702,0.007996988,0.007247271,0.05517578,-0.9558105,-0.2015381,0,0,0,0,0,0
0.01666667,0.1453634,1,-0.8893147,0.01924924,0,0,0,0,0,0,0,0,0,0,0,1,0,0,-0.03252577,0.007151056,0.007843095,0.06616211,-0.9509277,-0.2145996,0,0,0,0,0,0
0.02,0.1453634,1,-0.8893147,0.01924924,0,0,0,0,0,0,0,0,0,0,0,1,0,0,0,0,0,0.06616211,-0.9509277,-0.2145996,0,0,0,0,0,0
0.02333334,0.08240198,1,-0.9354231,-0.01164427,0,0,0,0,0,0,0,0,0,0,0,1,0,0,0,0,0,0.07763672,-0.9528809,-0.2142334,0,0,0,0,0,0
0.02666667,0.01960851,1,-0.9724903,-0.04296142,0,0,0,0,0,0,0,0,0,0,0,1,0,0,0,0,0,0.07177734,-0.9543457,-0.2025146,0,0,0,0,0,0
0.03,-0.035298,1,-1,-0.07454614,0,0,0,0,0,0,0,0,0,0,0,1,0,0,0,0,0,0.05285645,-0.9608154,-0.2000732,0,0,0,0,0,0
0.03333334,-0.09812176,1,-1,-0.113854,0,0,0,0,0,0,0,0,0,0,0,1,0,0,0,0,0,0.06262207,-0.9733887,-0.1959229,0,0,0,0,0,0
0.03666667,-0.1453634,1,-1,-0.1217254,0,0,0,0,0,0,0,0,0,0,0,1,0,0,0,0,0,0.08081055,-1.014526,-0.2015381,0,0,0,0,0,0
0.04,-0.2006854,1,-1,-0.1296006,0,0,0,0,0,0,0,0,0,0,0,1,0,0,0,0,0,0.01806641,-1.035156,-0.2078857,0,0,0,0,0,0
0.04333334,-0.2483314,1,-1,-0.1296006,0,0,0,0,0,0,0,0,0,0,0,1,0,0,0,0,0,-0.01940918,-0.9992676,-0.2230225,0,0,0,0,0,0
0.04666667,-0.2962267,1,-1,-0.1296006,0,0,0,0,0,0,0,0,0,0,0,1,0,0,0,0,0,-0.01745605,-1.00293,-0.2305908,0,0,0,0,0,0
0.05,-0.336352,1,-1,-0.1374799,0,0,0,0,0,0,0,0,0,0,0,1,0,0,0,0,0,0.006225586,-1.005615,-0.2355957,0,0,0,0,0,0
0.05333334,-0.3766855,1,-1,-0.1374799,0,0,0,0,0,0,0,0,0,0,0,1,0,0,0,0,0,0.01586914,-1.002686,-0.2337646,0,0,0,0,0,0
0.05666667,-0.4172379,1,-1,-0.1453634,0,0,0,0,0,0,0,0,0,0,0,1,0,0,0,0,0,0.006835938,-0.9844971,-0.2304688,0,0,0,0,0,0
0.06000001,-0.4498426,1,-1,-0.1532514,0,0,0,0,0,0,0,0,0,0,0,1,0,0,-0.05298005,0.01399473,0.05223033,-0.006713867,-0.9868164,-0.2178955,0,0,0,0,0,0
0.06333334,-0.4825947,1,-1,-0.1611441,0,0,0,0,0,0,0,0,0,0,0,1,0,0,-0.05547911,0.01574407,0.05447949,-0.0123291,-0.986084,-0.2194824,0,0,0,0,0,0
0.06666667,-0.5154955,1,-1,-0.1690417,0,0,0,0,0,0,0,0,0,0,0,1,0,0,-0.05190741,0.01407268,0.05190741,-0.02062988,-0.9807129,-0.2219238,0,0,0,0,0,0
0.07,-0.5154955,1,-1,-0.1690417,0,0,0,0,0,0,0,0,0,0,0,1,0,0,0,0,0,-0.02062988,-0.9807129,-0.2219238,0,0,0,0,0,0
0.07333333,-0.5397605,1,-1,-0.1769445,0,0,0,0,0,0,0,0,0,0,0,1,0,0,0,0,0,-0.02380371,-0.9685059,-0.2362061,0,0,0,0,0,0
0.07666666,-0.5640897,1,-1,-0.1769445,0,0,0,0,0,0,0,0,0,0,0,1,0,0,0,0,0,-0.02478027,-0.9506836,-0.2513428,0,0,0,0,0,0
0.07999999,-0.5801693,0.9962907,-1,-0.1848525,0,0,0,0,0,0,0,0,0,0,0,1,0,0,0,0,0,-0.02490234,-0.9482422,-0.2602539,0,0,0,0,0,0
0.08333332,-0.6040648,0.980105,-1,-0.1848525,0,0,0,0,0,0,0,0,0,0,0,1,0,0,0,0,0,-0.02258301,-0.9492188,-0.2592773,0,0,0,0,0,0
0.08666665,-0.6196507,0.9634567,-1,-0.1848525,0,0,0,0,0,0,0,0,0,0,0,1,0,0,0,0,0,-0.01586914,-0.9467773,-0.2593994,0,0,0,0,0,0
0.08999998,-0.6358177,0.9557259,-1,-0.1848525,0,0,0,0,0,0,0,0,0,0,0,1,0,0,0,0,0,-0.01220703,-0.9484863,-0.258667,0,0,0,0,0,0
0.09333331,-0.6598403,0.9397725,-1,-0.1848525,0,0,0,0,0,0,0,0,0,0,0,1,0,0,0,0,0,-0.01049805,-0.935791,-0.260376,0,0,0,0,0,0
0.09666664,-0.6670833,0.922732,-1,-0.1848525,0,0,0,0,0,0,0,0,0,0,0,1,0,0,0,0,0,-0.008789063,-0.9332275,-0.2515869,0,0,0,0,0,0
0.09999997,-0.6833416,0.9151183,-1,-0.1848525,0,0,0,0,0,0,0,0,0,0,0,1,0,0,0,0,0,-0.006591797,-0.9449463,-0.2307129,0,0,0,0,0,0
0.1033333,-0.6996371,0.9075292,-1,-0.1848525,0,0,0,0,0,0,0,0,0,0,0,1,0,0,0,0,0,-0.004760742,-0.9407959,-0.2392578,0,0,0,0,0,0
0.1066666,-0.698437,0.8900082,-1,-0.1848525,0,0,0,0,0,0,0,0,0,0,0,1,0,0,0,0,0,-0.0078125,-0.9465332,-0.2420654,0,0,0,0,0,0
0.11,-0.7147655,0.8824759,-1,-0.1848525,0,0,0,0,0,0,0,0,0,0,0,1,0,0,0.002749189,-0.008247566,0.02724196,-0.01257324,-0.9482422,-0.2408447,0,0,0,0,0,0
0.1133333,-0.7232483,0.8830822,-1,-0.1848525,0,0,0,0,0,0,0,0,0,0,0,1,0,0,0.009496424,-0.008996612,0.0254904,-0.01757813,-0.9606934,-0.2321777,0,0,0,0,0,0
0.1166666,-0.7232483,0.8830822,-1,-0.1848525,0,0,0,0,0,0,0,0,0,0,0,1,0,0,0,0,0,-0.01757813,-0.9606934,-0.2321777,0,0,0,0,0,0
0.12,-0.7311347,0.8749644,-1,-0.1848525,0,0,0,0,0,0,0,0,0,0,0,1,0,0,0,0,0,-0.02392578,-0.9711914,-0.2329102,0,0,0,0,0,0
0.1233333,-0.7311347,0.8749644,-1,-0.1848525,0,0,0,0,0,0,0,0,0,0,0,1,0,0,0,0,0,-0.02075195,-0.9771729,-0.237793,0,0,0,0,0,0
0.1266666,-0.7390295,0.8668616,-1,-0.1848525,0,0,0,0,0,0,0,0,0,0,0,1,0,0,0,0,0,-0.0123291,-0.9863281,-0.237915,0,0,0,0,0,0
0.13,-0.7390295,0.8668616,-1,-0.1848525,0,0,0,0,0,0,0,0,0,0,0,1,0,0,0,0,0,-0.01184082,-0.9897461,-0.2390137,0,0,0,0,0,0
0.1333333,-0.7390295,0.8668616,-1,-0.1848525,0,0,0,0,0,0,0,0,0,0,0,1,0,0,0,0,0,-0.01342773,-0.9779053,-0.251709,0,0,0,0,0,0
0.1366666,-0.7390295,0.8668616,-1,-0.1927661,0,0,0,0,0,0,0,0,0,0,0,1,0,0,0,0,0,-0.01879883,-0.963501,-0.2506104,0,0,0,0,0,0
0.1399999,-0.7390295,0.8668616,-1,-0.2006854,0,0,0,0,0,0,0,0,0,0,0,1,0,0,0,0,0,-0.02563477,-0.9526367,-0.2479248,0,0,0,0,0,0
0.1433333,-0.7390295,0.8668616,-1,-0.2086106,0,0,0,0,0,0,0,0,0,0,0,1,0,0,0,0,0,-0.01257324,-0.9383545,-0.2445068,0,0,0,0,0,0
0.1466666,-0.7311347,0.8749644,-1,-0.2244794,0,0,0,0,0,0,0,0,0,0,0,1,0,0,0,0,0,-0.01171875,-0.9241943,-0.2458496,0,0,0,0,0,0
0.1499999,-0.7147655,0.8824759,-1,-0.2324234,0,0,0,0,0,0,0,0,0,0,0,1,0,0,0.0355246,-0.000922717,0.01014989,-0.01696777,-0.9063721,-0.2502441,0,0,0,0,0,0
0.1533333,-0.6996371,0.9075292,-1,-0.2324234,0,0,0,0,0,0,0,0,0,0,0,1,0,0,0.04748599,0,0.01024698,-0.002197266,-0.8986816,-0.2510986,0,0,0,0,0,0
0.1566666,-0.6755022,0.9233196,-1,-0.2324234,0,0,0,0,0,0,0,0,0,0,0,1,0,0,0.0592277,0.001499435,0.01049605,0.008544922,-0.9162598,-0.2554932,0,0,0,0,0,0
0.1599999,-0.6755022,0.9233196,-1,-0.2324234,0,0,0,0,0,0,0,0,0,0,0,1,0,0,0,0,0,0.008544922,-0.9162598,-0.2554932,0,0,0,0,0,0
0.1633333,-0.6441975,0.9562932,-0.9670185,-0.2074979,0,0,0,0,0,0,0,0,0,0,0,1,0,0,0,0,0,-0.008789063,-0.9349365,-0.2491455,0,0,0,0,0,0
0.1666666,-0.6040648,0.980105,-0.882551,-0.1503035,0,0,0,0,0,0,0,0,0,0,0,1,0,0,0,0,0,-0.03112793,-0.9486084,-0.2486572,0,0,0,0,0,0
0.1699999,-0.5640897,1,-0.7888329,-0.08680937,0,0,0,0,0,0,0,0,0,0,0,1,0,0,0,0,0,-0.05749512,-0.9598389,-0.2333984,0,0,0,0,0,0
0.1733332,-0.5154955,1,-0.667886,-0.01824825,0,0,0,0,0,0,0,0,0,0,0,1,0,0,0,0,0,-0.0838623,-0.9547119,-0.2303467,0,0,0,0,0,0
0.1766666,-0.4498426,1,-0.5028985,0.05815833,0,0,0,0,0,0,0,0,0,0,0,1,0,0,0,0,0,-0.06616211,-0.9500732,-0.2539063,0,0,0,0,0,0
0.1799999,-0.3605264,1,-0.3081144,0.1046991,0,0,0,0,0,0,0,0,0,0,0,1,0,0,0,0,0,-0.1113281,-1.002563,-0.1455078,0,0,0,0,0,0
0.1833332,-0.2403741,1,-0.1314626,0.1176244,0,0,0,0,0,0,0,0,0,0,0,1,0,0,0,0,0,-0.1434326,-0.9405518,-0.2562256,0,0,0,0,0,0
0.1866666,-0.09812176,1,-0.03245672,0.1202808,0,0,0,0,0,0,0,0,0,0,0,1,0,0,0,0,0,-0.09472656,-0.7957764,-0.3500977,0,0,0,0,0,0
0.1899999,0.05099206,1,0.04432172,0.1749542,0,0,0,0,0,0,0,0,0,0,0,1,0,0,0,0,0,-0.08642578,-0.7509766,-0.3651123,0,0,0,0,0,0
0.1933332,0.1927661,1,0.1279854,0.2531267,0,0,0,0,0,0,0,0,0,0,0,1,0,0,0,0,0,-0.09350586,-0.7629395,-0.3497314,0,0,0,0,0,0
0.1966666,0.3283107,1,0.2521707,0.350419,0,0,0,0,0,0,0,0,0,0,0,1,0,0,0.2266647,0.04498306,-0.04848175,-0.1090088,-0.8453369,-0.3210449,0,0,0,0,0,0
0.1999999,0.4416777,1,0.3949356,0.4447473,0,0,0,0,0,0,0,0,0,0,0,1,0,0,0.2210102,0.04014173,-0.058367,-0.1538086,-0.8895264,-0.2991943,0,0,0,0,0,0
0.2033332,0.523744,1,0.5534171,0.5534171,0,0,0,0,0,0,0,0,0,0,0,1,0,0,0.2499059,0.04548287,-0.07747083,-0.1812744,-0.9509277,-0.2875977,0,0,0,0,0,0
0.2066665,0.523744,1,0.5534171,0.5534171,0,0,0,0,0,0,0,0,0,0,0,1,0,0,0,0,0,-0.1812744,-0.9509277,-0.2875977,0,0,0,0,0,0
0.2099999,0.5895449,1,0.713228,0.6430745,0,0,0,0,0,0,0,0,0,0,0,1,0,0,0,0,0,-0.1541748,-1.020752,-0.2733154,0,0,0,0,0,0
0.2133332,0.6380451,0.991177,0.8395301,0.7201656,0,0,0,0,0,0,0,0,0,0,0,1,0,0,0,0,0,-0.1347656,-0.9460449,-0.3171387,0,0,0,0,0,0
0.2166665,0.6705226,0.9756706,0.865021,0.7135427,0,0,0,0,0,0,0,0,0,0,0,1,0,0,0,0,0,-0.09936523,-1.096313,-0.1800537,0,0,0,0,0,0
0.2199999,0.6868083,0.9679579,0.8963585,0.6652973,0,0,0,0,0,0,0,0,0,0,0,1,0,0,0,0,0,0.05786133,-1.102295,-0.09558105,0,0,0,0,0,0
0.2233332,0.7025566,0.9514624,0.919205,0.6167826,0,0,0,0,0,0,0,0,0,0,0,1,0,0,0,0,0,0.1643066,-1.214478,-0.05224609,0,0,0,0,0,0
0.2266665,0.7189054,0.9438144,0.9512189,0.5691394,0,0,0,0,0,0,0,0,0,0,0,1,0,0,0,0,0,0.1600342,-1.195313,-0.04467773,0,0,0,0,0,0
0.2299999,0.7268038,0.9356093,0.9663064,0.5288838,0,0,0,0,0,0,0,0,0,0,0,1,0,0,0,0,0,0.12146,-1.164063,-0.06970215,0,0,0,0,0,0
0.2333332,0.7432049,0.9280018,0.9810852,0.4806126,0,0,0,0,0,0,0,0,0,0,0,1,0,0,0,0,0,0.07080078,-1.129883,-0.09606934,0,0,0,0,0,0
0.2366665,0.7426209,0.9192443,1,0.4330592,0,0,0,0,0,0,0,0,0,0,0,1,0,0,0,0,0,0.05065918,-1.127808,-0.1083984,0,0,0,0,0,0
0.2399998,0.7511274,0.9198298,1,0.3928797,0,0,0,0,0,0,0,0,0,0,0,1,0,0,0,0,0,0.06311035,-1.123779,-0.1203613,0,0,0,0,0,0
0.2433332,0.7511274,0.9198298,1,0.3605264,0,0,0,0,0,0,0,0,0,0,0,1,0,0,0,0,0,0.08728027,-1.110229,-0.1333008,0,0,0,0,0,0
0.2466665,0.7590574,0.9116721,1,0.3283107,0,0,0,0,0,0,0,0,0,0,0,1,0,0,0,0,0,0.08984375,-1.091431,-0.126709,0,0,0,0,0,0
0.2499998,0.7590574,0.9116721,1,0.3042357,0,0,0,0,0,0,0,0,0,0,0,1,0,0,0,0,0,0.08300781,-1.09082,-0.1140137,0,0,0,0,0,0
0.2533332,0.7590574,0.9116721,1,0.2802319,0,0,0,0,0,0,0,0,0,0,0,1,0,0,0.01474445,0.001999247,0.004498306,0.08508301,-1.110474,-0.1148682,0,0,0,0,0,0
0.2566665,0.7590574,0.9116721,1,0.2483314,0,0,0,0,0,0,0,0,0,0,0,1,0,0,-0.01974257,0,0.0294889,0.0892334,-1.116211,-0.1013184,0,0,0,0,0,0
0.2599998,0.7590574,0.9116721,1,0.2483314,0,0,0,0,0,0,0,0,0,0,0,1,0,0,-0.02624012,0,0.03698608,0.08496094,-1.081055,-0.130127,0,0,0,0,0,0
0.2633332,0.7590574,0.9116721,1,0.2483314,0,0,0,0,0,0,0,0,0,0,0,1,0,0,0,0,0,0.08496094,-1.081055,-0.130127,0,0,0,0,0,0
0.2666665,0.7590574,0.9116721,1,0.2483314,0,0,0,0,0,0,0,0,0,0,0,1,0,0,0,0,0,0.08459473,-1.06897,-0.1525879,0,0,0,0,0,0
0.2699998,0.7590574,0.9116721,1,0.2483314,0,0,0,0,0,0,0,0,0,0,0,1,0,0,0,0,0,0.08166504,-1.06958,-0.1450195,0,0,0,0,0,0
0.2733332,0.7590574,0.9116721,1,0.2483314,0,0,0,0,0,0,0,0,0,0,0,1,0,0,0,0,0,0.07617188,-1.072266,-0.1341553,0,0,0,0,0,0
0.2766665,0.7590574,0.9116721,1,0.2562958,0,0,0,0,0,0,0,0,0,0,0,1,0,0,0,0,0,0.06481934,-1.074951,-0.1296387,0,0,0,0,0,0
0.2799998,0.7590574,0.9116721,1,0.2962267,0,0,0,0,0,0,0,0,0,0,0,1,0,0,0,0,0,0.04797363,-1.067749,-0.1405029,0,0,0,0,0,0
0.2833332,0.7505404,0.9110838,1,0.3283107,0,0,0,0,0,0,0,0,0,0,0,1,0,0,0,0,0,0.03845215,-1.053467,-0.166626,0,0,0,0,0,0
0.2866665,0.7420328,0.9104943,1,0.3686016,0,0,0,0,0,0,0,0,0,0,0,1,0,0,0,0,0,0.02722168,-1.036255,-0.1901855,0,0,0,0,0,0
0.2899998,0.7335345,0.9099035,1,0.4253754,0,0,0,0,0,0,0,0,0,0,0,1,0,0,0,0,0,0.01074219,-1.031616,-0.197876,0,0,0,0,0,0
0.2933331,0.7250457,0.9093114,0.9900665,0.4811167,0,0,0,0,0,0,0,0,0,0,0,1,0,0,0,0,0,-0.006469727,-1.023926,-0.2005615,0,0,0,0,0,0
0.2966665,0.7080969,0.9081243,0.9752428,0.5294175,0,0,0,0,0,0,0,0,0,0,0,1,0,0,0,0,0,-0.01367188,-1.016846,-0.1958008,0,0,0,0,0,0
0.2999998,0.6923701,0.9244941,0.9440273,0.5935025,0,0,0,0,0,0,0,0,0,0,0,1,0,0,-0.09396462,-0.0252405,0.02898908,-0.01464844,-1.013428,-0.1882324,0,0,0,0,0,0
0.3033331,0.6766679,0.9409287,0.9045442,0.657488,0,0,0,0,0,0,0,0,0,0,0,1,0,0,-0.0922717,-0.0256054,0.0189157,-0.005859375,-1.003784,-0.1867676,0,0,0,0,0,0
0.3066665,0.6766679,0.9409287,0.9045442,0.657488,0,0,0,0,0,0,0,0,0,0,0,1,0,0,0,0,0,-0.005859375,-1.003784,-0.1867676,0,0,0,0,0,0
0.3099998,0.6525872,0.956861,0.865021,0.7135427,0,0,0,0,0,0,0,0,0,0,0,1,0,0,0,0,0,0.01342773,-0.987915,-0.2121582,0,0,0,0,0,0
0.3133331,0.6202084,0.9723267,0.8259454,0.7700843,0,0,0,0,0,0,0,0,0,0,0,1,0,0,0,0,0,0.02319336,-0.970459,-0.2252197,0,0,0,0,0,0
0.3166665,0.5962749,0.9884557,0.7859832,0.8099219,0,0,0,0,0,0,0,0,0,0,0,1,0,0,0,0,0,0.03210449,-0.9619141,-0.2316895,0,0,0,0,0,0
0.3199998,0.5718616,0.995759,0.7548471,0.8507007,0,0,0,0,0,0,0,0,0,0,0,1,0,0,0,0,0,0.03820801,-0.9737549,-0.2342529,0,0,0,0,0,0
0.3233331,0.547518,1,0.7232483,0.8830822,0,0,0,0,0,0,0,0,0,0,0,1,0,0,0,0,0,0.02722168,-0.9754639,-0.2370605,0,0,0,0,0,0
0.3266664,0.523744,1,0.6911871,0.9069334,0,0,0,0,0,0,0,0,0,0,0,1,0,0,0,0,0,0.01708984,-0.9672852,-0.2271729,0,0,0,0,0,0
0.3299998,0.4990265,1,0.6592598,0.9309547,0,0,0,0,0,0,0,0,0,0,0,1,0,0,0,0,0,0.00402832,-0.9619141,-0.2175293,0,0,0,0,0,0
0.3333331,0.4743927,1,0.6352481,0.9468793,0,0,0,0,0,0,0,0,0,0,0,1,0,0,0,0,0,-0.006958008,-0.9445801,-0.2119141,0,0,0,0,0,0
0.3366664,0.4580168,1,0.6112997,0.9628969,0,0,0,0,0,0,0,0,0,0,0,1,0,0,0,0,0,-0.01660156,-0.9433594,-0.2020264,0,0,0,0,0,0
0.3399998,0.4416777,1,0.6035143,0.9712184,0,0,0,0,0,0,0,0,0,0,0,1,0,0,0,0,0,-0.02026367,-0.9301758,-0.2019043,0,0,0,0,0,0
0.3433331,0.4253754,1,0.5874074,0.9790122,0,0,0,0,0,0,0,0,0,0,0,1,0,0,0,0,0,-0.0213623,-0.9289551,-0.1994629,0,0,0,0,0,0
0.3466664,0.4172379,1,0.579634,0.9873765,0,0,0,0,0,0,0,0,0,0,0,1,0,0,0,0,0,-0.0291748,-0.9453125,-0.2044678,0,0,0,0,0,0
0.3499998,0.4091095,1,0.5713281,0.9868394,0,0,0,0,0,0,0,0,0,0,0,1,0,0,-0.02599021,-0.01599398,-0.01724351,-0.0378418,-0.9511719,-0.2094727,0,0,0,0,0,0
0.3533331,0.3928797,1,0.5713281,0.9868394,0,0,0,0,0,0,0,0,0,0,0,1,0,0,0,0,0,-0.0378418,-0.9593506,-0.2164307,0,0,0,0,0,0
0.3566664,0.3847782,1,0.5713281,0.9868394,0,0,0,0,0,0,0,0,0,0,0,1,0,0,-0.01476477,-0.01384198,-0.01822527,-0.04211426,-0.9603271,-0.2198486,0,0,0,0,0,0
0.3599997,0.3766855,1,0.5713281,0.9868394,0,0,0,0,0,0,0,0,0,0,0,1,0,0,0,0,0,-0.04260254,-0.96875,-0.223999,0,0,0,0,0,0
0.3633331,0.3686016,1,0.5713281,0.9868394,0,0,0,0,0,0,0,0,0,0,0,1,0,0,-0.01099586,-0.01424464,-0.02249153,-0.03820801,-0.9790039,-0.2287598,0,0,0,0,0,0
0.3666664,0.3686016,1,0.5713281,0.9868394,0,0,0,0,0,0,0,0,0,0,0,1,0,0,-0.01124577,-0.01449454,-0.0252405,-0.02270508,-0.9727783,-0.2320557,0,0,0,0,0,0
0.3699997,0.3686016,1,0.5713281,0.9868394,0,0,0,0,0,0,0,0,0,0,0,1,0,0,-0.01149567,-0.01624388,-0.02823937,-0.006225586,-0.9606934,-0.2435303,0,0,0,0,0,0
0.3733331,0.3686016,1,0.5713281,0.9868394,0,0,0,0,0,0,0,0,0,0,0,1,0,0,0,0,0,-0.006225586,-0.9606934,-0.2435303,0,0,0,0,0,0
0.3766664,0.3686016,1,0.5713281,0.9868394,0,0,0,0,0,0,0,0,0,0,0,1,0,0,0,0,0,0.009155273,-0.9432373,-0.2609863,0,0,0,0,0,0
0.3799997,0.3686016,1,0.5713281,0.9868394,0,0,0,0,0,0,0,0,0,0,0,1,0,0,0,0,0,0.02636719,-0.9157715,-0.2935791,0,0,0,0,0,0
0.3833331,0.3686016,1,0.5702448,0.9690174,0,0,0,0,0,0,0,0,0,0,0,1,0,0,0,0,0,0.05407715,-0.8912354,-0.3370361,0,0,0,0,0,0
0.3866664,0.3686016,1,0.5668602,0.9156972,0,0,0,0,0,0,0,0,0,0,0,1,0,0,0,0,0,0.0657959,-0.869873,-0.3509521,0,0,0,0,0,0
0.3899997,0.3686016,1,0.5626429,0.8538007,0,0,0,0,0,0,0,0,0,0,0,1,0,0,0,0,0,0.09240723,-0.8642578,-0.3684082,0,0,0,0,0,0
0.393333,0.3847782,1,0.5567665,0.774801,0,0,0,0,0,0,0,0,0,0,0,1,0,0,0,0,0,0.1361084,-0.8233643,-0.4017334,0,0,0,0,0,0
0.3966664,0.4091095,1,0.5488452,0.6793399,0,0,0,0,0,0,0,0,0,0,0,1,0,0,0,0,0,0.1066895,-0.7562256,-0.4052734,0,0,0,0,0,0
0.3999997,0.4416777,1,0.5234736,0.5837295,0,0,0,0,0,0,0,0,0,0,0,1,0,0,0,0,0,0.08422852,-0.810791,-0.3040771,0,0,0,0,0,0
0.403333,0.4743927,1,0.47768,0.4630944,0,0,0,0,0,0,0,0,0,0,0,1,0,0,0,0,0,0.05322266,-0.8387451,-0.2756348,0,0,0,0,0,0
0.4066664,0.5154955,1,0.4300014,0.3460987,0,0,0,0,0,0,0,0,0,0,0,1,0,0,0.1358701,-0.06205272,-0.02975762,0.015625,-0.8699951,-0.2492676,0,0,0,0,0,0
0.4099997,0.5651261,1,0.3598287,0.2107105,0,0,0,0,0,0,0,0,0,0,0,1,0,0,0.1604396,-0.06697478,-0.02399097,0.02209473,-0.9312744,-0.1925049,0,0,0,0,0,0
0.413333,0.6062144,1,0.2784441,0.08324619,0,0,0,0,0,0,0,0,0,0,0,1,0,0,0.1684366,-0.0634761,-0.01749341,-0.01416016,-0.930542,-0.1291504,0,0,0,0,0,0
0.4166664,0.6632204,0.9928208,0.1787774,0,0,0,0,0,0,0,0,0,0,0,0,0,0,0,0.152031,-0.0546758,-0.01084288,-0.06347656,-1.008057,-0.05187988,0,0,0,0,0,0
0.4199997,0.6952458,0.9685216,0.1114376,-0.03105639,0,0,0,0,0,0,0,0,0,0,0,0,0,0,0.1436959,-0.04498306,-0.0002499059,-0.130127,-1.087402,0.04455566,0,0,0,0,0,0
0.423333,0.6952458,0.9685216,0.1114376,-0.03105639,0,0,0,0,0,0,0,0,0,0,0,0,0,0,0,0,0,-0.130127,-1.087402,0.04455566,0,0,0,0,0,0
0.4266663,0.7194791,0.9526064,0.08971035,-0.0490868,0,0,0,0,0,0,0,0,0,0,0,0,0,0,0,0,0,-0.1533203,-1.236206,0.1175537,0,0,0,0,0,0
0.4299997,0.7358662,0.9449648,0.07818004,-0.06154599,0,0,0,0,0,0,0,0,0,0,0,0,0,0,0,0,0,-0.1280518,-1.160278,-0.0189209,0,0,0,0,0,0
0.433333,0.7517101,0.9285831,0.06738002,-0.07066685,0,0,0,0,0,0,0,0,0,0,0,0,0,0,0,0,0,-0.1339111,-1.023926,0.06420898,0,0,0,0,0,0
0.4366663,0.7669954,0.9035286,0.06435483,-0.07425557,0,0,0,0,0,0,0,0,0,0,0,0,0,0,0,0,0,-0.08581543,-0.9852295,-0.001708984,0,0,0,0,0,0
0.4399997,0.7994311,0.8797759,0.05890491,-0.08246687,0,0,0,0,0,0,0,0,0,0,0,0,0,0,0,0,0,-0.05737305,-0.9553223,-0.07849121,0,0,0,0,0,0
0.443333,0.8154115,0.8636132,0.0536726,-0.07969568,0,0,0,0,0,0,0,0,0,0,0,0,0,0,0,0,0,-0.04211426,-0.9505615,-0.1065674,0,0,0,0,0,0
0.4466663,0.8314335,0.8474998,0.05136039,-0.08449613,0,0,0,0,0,0,0,0,0,0,0,0,0,0,0,0,0,0.006591797,-1.018799,-0.1558838,0,0,0,0,0,0
0.4499997,0.8474998,0.8314335,0.0490868,-0.08971035,0,0,0,0,0,0,0,0,0,0,0,0,0,0,0,0,0,0.07861328,-1.084229,-0.2110596,0,0,0,0,0,0
0.453333,0.8549528,0.8148141,0.04446292,-0.08727907,0,0,0,0,0,0,0,0,0,0,0,0,0,0,0,0,0,0.1069336,-1.064453,-0.2032471,0,0,0,0,0,0
0.4566663,0.8630162,0.8068197,0.0400546,-0.08491576,0,0,0,0,0,0,0,0,0,0,0,0,0,0,0,0,0,0.09228516,-1.031494,-0.1717529,0,0,0,0,0,0
0.4599997,0.8630162,0.8068197,0.0400546,-0.08491576,0,0,0,0,0,0,0,0,0,0,0,0,0,0,0,0,0,0.06506348,-1.008423,-0.1704102,0,0,0,0,0,0
0.463333,0.8624167,0.7982369,0.0400546,-0.08491576,0,0,0,0,0,0,0,0,0,0,0,0,0,0,0,0,0,0.04492188,-1.024902,-0.1900635,0,0,0,0,0,0
0.4666663,0.8710923,0.7988358,0.03586131,-0.08263692,0,0,0,0,0,0,0,0,0,0,0,0,0,0,0,0,0,0.02868652,-1.042236,-0.1638184,0,0,0,0,0,0
0.4699996,0.8710923,0.7988358,0.03586131,-0.08263692,0,0,0,0,0,0,0,0,0,0,0,0,0,0,0.05248024,-0.02823937,0.00549793,0.002685547,-1.11499,-0.07141113,0,0,0,0,0,0
0.473333,0.8710923,0.7988358,0.03586131,-0.08263692,0,0,0,0,0,0,0,0,0,0,0,0,0,0,0.03348739,-0.0254904,0.01599398,-0.01574707,-1.224976,-0.03320313,0,0,0,0,0,0
0.4766663,0.8710923,0.7988358,0.03188033,-0.08045989,0,0,0,0,0,0,0,0,0,0,0,0,0,0,0.008535132,-0.02053045,0.0189157,-0.04455566,-1.226074,-0.0267334,0,0,0,0,0,0
0.4799996,0.8624167,0.7982369,0.02737064,-0.06386483,0,0,0,0,0,0,0,0,0,0,0,0,0,0,-0.02149366,-0.01924432,0.0257424,-0.04467773,-1.275635,-0.01184082,0,0,0,0,0,0
0.483333,0.8624167,0.7982369,0.02737064,-0.06386483,0,0,0,0,0,0,0,0,0,0,0,0,0,0,0,0,0,-0.04467773,-1.275635,-0.01184082,0,0,0,0,0,0
0.4866663,0.8624167,0.7982369,0.01036987,-0.02128552,0,0,0,0,0,0,0,0,0,0,0,1,0,0,0,0,0,-0.05358887,-1.231689,-0.02539063,0,0,0,0,0,0
0.4899996,0.8624167,0.7982369,0,0,0,0,0,0,0,0,0,0,0,0,0,1,0,0,0,0,0,-0.0670166,-1.182983,-0.03491211,0,0,0,0,0,0
0.493333,0.8624167,0.7982369,0,0,0,0,0,0,0,0,0,0,0,0,0,1,0,0,0,0,0,-0.04870605,-1.167725,-0.04797363,0,0,0,0,0,0
0.4966663,0.8537496,0.7976347,0,0,0,0,0,0,0,0,0,0,0,0,0,1,0,0,0,0,0,-0.004882813,-1.110474,-0.08630371,0,0,0,0,0,0
0.4999996,0.8450909,0.7970289,0,0,0,0,0,0,0,0,0,0,0,0,0,1,0,0,0,0,0,-0.1364746,-0.9979248,0.2233887,0,0,0,0,0,0
0.503333,0.8284124,0.8044004,0,0,0,0,0,0,0,0,0,0,0,0,0,1,0,0,0,0,0,-0.159668,-1.020508,0.01843262,0,0,0,0,0,0
0.5066663,0.8050102,0.8370504,0,0,0,0,0,0,0,0,0,0,0,0,0,1,0,0,0,0,0,-0.02844238,-1.134399,0.07080078,0,0,0,0,0,0
0.5099996,0.7731484,0.8692912,0,0,0,0,0,0,0,0,0,0,0,0,0,1,0,0,0,0,0,0.06066895,-1.120972,-0.05712891,0,0,0,0,0,0
0.513333,0.7572768,0.885493,0,0,0,0,0,0,0,0,0,0,0,0,0,1,0,0,-0.164688,0.02624012,-0.04748212,0.1013184,-1.074829,-0.237915,0,0,0,0,0,0
0.5166663,0.7250457,0.9093114,0,0,0,0,0,0,0,0,0,0,0,0,0,1,0,0,-0.1570926,0.007612415,-0.05028807,0.1369629,-1.046265,-0.3640137,0,0,0,0,0,0
0.5199996,0.6850963,0.9415066,0,0,0,0,0,0,0,0,0,0,0,0,0,1,0,0,-0.1734488,-0.01349602,-0.06223164,0.1646729,-1.034912,-0.427124,0,0,0,0,0,0
0.523333,0.6363822,0.9645792,0,0,0,0,0,0,0,0,0,0,0,0,0,1,0,0,-0.1731848,-0.03198795,-0.06822432,0.161377,-1.016846,-0.4193115,0,0,0,0,0,0
0.5266663,0.6363822,0.9645792,0,0,0,0,0,0,0,0,0,0,0,0,0,1,0,0,0,0,0,0.161377,-1.016846,-0.4193115,0,0,0,0,0,0
0.5299996,0.5723898,1,0,0,0,0,0,0,0,0,0,0,0,0,0,1,0,0,0,0,0,0.1430664,-1.014038,-0.411377,0,0,0,0,0,0
0.5333329,0.4990265,1,0,0,0,0,0,0,0,0,0,0,0,0,0,1,0,0,0,0,0,0.135376,-0.9946289,-0.4266357,0,0,0,0,0,0
0.5366663,0.4253754,1,0,0,0,0,0,0,0,0,0,0,0,0,0,1,0,0,0,0,0,0.1500244,-0.9676514,-0.454834,0,0,0,0,0,0
0.5399996,0.3605264,1,0,0,0,0,0,0,0,0,0,0,0,0,0,1,0,0,0,0,0,0.1363525,-0.9484863,-0.4587402,0,0,0,0,0,0
0.5433329,0.3122526,1,0,0,0,0,0,0,0,0,0,0,0,0,0,1,0,0,0,0,0,0.08422852,-0.9488525,-0.4510498,0,0,0,0,0,0
0.5466663,0.2882255,1,0,0,0,0,0,0,0,0,0,0,0,0,0,1,0,0,0,0,0,0.02612305,-0.9528809,-0.4228516,0,0,0,0,0,0
0.5499996,0.2642672,1,0,0,0,0,0,0,0,0,0,0,0,0,0,1,0,0,0,0,0,-0.0002441406,-0.9522705,-0.3863525,0,0,0,0,0,0
0.5533329,0.2403741,1,0,0,0,0,0,0,0,0,0,0,0,0,0,1,0,0,0,0,0,-0.03027344,-0.9351807,-0.3278809,0,0,0,0,0,0
0.5566663,0.2086106,1,0,0,0,0,0,0,0,0,0,0,0,0,0,1,0,0,0,0,0,-0.002075195,-0.9350586,-0.3238525,0,0,0,0,0,0
0.5599996,0.1769445,1,0,0,0,0,0,0,0,0,0,0,0,0,0,1,0,0,0,0,0,0.003173828,-0.9223633,-0.3081055,0,0,0,0,0,0
0.5633329,0.1453634,1,0,0,0,0,0,0,0,0,0,0,0,0,0,1,0,0,0,0,0,-0.01000977,-0.9211426,-0.2354736,0,0,0,0,0,0
0.5666662,0.1217254,1,0,0,0,0,0,0,0,0,0,0,0,0,0,1,0,0,-0.1401972,-0.05997742,0.01124577,-0.0645752,-0.894043,-0.1876221,0,0,0,0,0,0
0.5699996,0.1217254,1,0,0,0,0,0,0,0,0,0,0,0,0,0,1,0,0,0,0,0,-0.0645752,-0.894043,-0.1876221,0,0,0,0,0,0
0.5733329,0.1059862,1,0,0,0,0,0,0,0,0,0,0,0,0,0,1,0,0,0,0,0,-0.06237793,-0.8775635,-0.1551514,0,0,0,0,0,0
0.5766662,0.09812176,1,0,0,0,0,0,0,0,0,0,0,0,0,0,1,0,0,0,0,0,-0.03759766,-0.8399658,-0.1254883,0,0,0,0,0,0
0.5799996,0.09812176,1,0,0,0,0,0,0,0,0,0,0,0,0,0,1,0,0,0,0,0,-0.02258301,-0.8023682,-0.1324463,0,0,0,0,0,0
0.5833329,0.09812176,1,0,0,0,0,0,0,0,0,0,0,0,0,0,1,0,0,0,0,0,-0.03649902,-0.7061768,-0.1506348,0,0,0,0,0,0
0.5866662,0.1217254,1,0,0,0,0,0,0,0,0,0,0,0,0,0,1,0,0,0,0,0,-0.0300293,-0.6566162,-0.1722412,0,0,0,0,0,0
0.5899996,0.1769445,1,0,0,0,0,0,0,0,0,0,0,0,0,0,0,0,0,0,0,0,-0.02307129,-0.649292,-0.1781006,0,0,0,0,0,0
0.5933329,0.2483314,1,0,0,0,0,0,0,0,0,0,0,0,0,0,0,0,0,0,0,0,-0.01196289,-0.6875,-0.1663818,0,0,0,0,0,0
0.5966662,0.3347332,0.9726954,0,0,0,0,0,0,0,0,0,0,0,0,0,0,0,0,0,0,0,-0.0001220703,-0.7294922,-0.1636963,0,0,0,0,0,0
0.5999995,0.4210415,0.9325873,0,0,0,0,0,0,0,0,0,0,0,0,0,0,0,0,0.08811947,0.024452,0.04659721,0.02929688,-0.8620605,-0.2131348,0,0,0,0,0,0
0.6033329,0.5326343,0.8956146,0,0,0,0,0,0,0,0,0,0,0,0,0,0,0,0,0.1054603,0.02599021,0.03173805,-0.004394531,-0.8973389,-0.1428223,0,0,0,0,0,0
0.6066662,0.6634662,0.8700544,0,0,0,0,0,0,0,0,0,0,0,0,0,0,0,0,0.1094588,0.03273767,0.01599398,-0.004394531,-0.9610596,-0.1083984,0,0,0,0,0,0
0.6099995,0.7719339,0.851927,0,0,0,0,0,0,0,0,0,0,0,0,0,0,0,0,0.09481753,0.03322074,0,-0.01501465,-1.010986,-0.09973145,0,0,0,0,0,0
0.6133329,0.7719339,0.851927,0,0,0,0,0,0,0,0,0,0,0,0,0,0,0,0,0,0,0,-0.01501465,-1.010986,-0.09973145,0,0,0,0,0,0
0.6166662,0.8382612,0.8222179,0,0,0,0,0,0,0,0,0,0,0,0,0,0,0,0,0,0,0,-0.1235352,-0.9709473,-0.1578369,0,0,0,0,0,0
0.6199995,0.8543524,0.8062198,0,0,0,0,0,0,0,0,0,0,0,0,0,0,0,0,0,0,0,-0.1293945,-1.03833,-0.1628418,0,0,0,0,0,0
0.6233329,0.8704941,0.7902642,0,0,0,0,0,0,0,0,0,0,0,0,0,0,0,0,0,0,0,-0.07434082,-1.157349,-0.1719971,0,0,0,0,0,0
0.6266662,0.8866885,0.7743478,0,0,0,0,0,0,0,0,0,0,0,0,0,0,0,0,0,0,0,-0.01782227,-1.185669,-0.1783447,0,0,0,0,0,0
0.6299995,0.8942115,0.7578744,0,0,0,0,0,0,0,0,0,0,0,0,0,0,0,0,0,0,0,-0.00793457,-1.161011,-0.1748047,0,0,0,0,0,0
0.6333328,0.9104943,0.7420328,0,0,0,0,0,0,0,0,0,0,0,0,0,0,0,0,0,0,0,-0.04785156,-1.135742,-0.1723633,0,0,0,0,0,0
0.6366662,0.9180699,0.725636,0,0,0,0,0,0,0,0,0,0,0,0,0,0,0,0,0,0,0,-0.05810547,-1.154053,-0.1435547,0,0,0,0,0,0
0.6399995,0.9338674,0.7014025,0,0,0,0,0,0,0,0,0,0,0,0,0,0,0,0,0,0,0,-0.09033203,-1.186035,-0.1542969,0,0,0,0,0,0
0.6433328,0.9332856,0.6929545,0,0,0,0,0,0,0,0,0,0,0,0,0,0,0,0,-0.04152226,0.01268736,-0.04382905,-0.09802246,-1.230347,-0.1507568,0,0,0,0,0,0
0.6466662,0.9420841,0.6935343,0,0,0,0,0,0,0,0,0,0,0,0,0,0,0,0,-0.07697729,0.01399587,-0.04698614,-0.0814209,-1.211914,-0.1478271,0,0,0,0,0,0
0.6499995,0.9420841,0.6935343,0,0,0,0,0,0,0,0,0,0,0,0,0,0,0,0,-0.1012119,0.01224539,-0.05023109,-0.0769043,-1.12561,-0.1899414,0,0,0,0,0,0
0.6533328,0.9420841,0.6935343,0,0,0,0,0,0,0,0,0,0,0,0,0,0,0,0,0,0,0,-0.0769043,-1.12561,-0.1899414,0,0,0,0,0,0
0.6566662,0.9415066,0.6850963,0,0,0,0,0,0,0,0,0,0,0,0,0,1,0,0,0,0,0,-0.06237793,-1.031738,-0.2053223,0,0,0,0,0,0
0.6599995,0.9415066,0.6850963,0,0,0,0,0,0,0,0,0,0,0,0,0,1,0,0,0,0,0,-0.03161621,-1.040161,-0.1964111,0,0,0,0,0,0
0.6633328,0.9415066,0.6850963,0,0,0,0,0,0,0,0,0,0,0,0,0,1,0,0,0,0,0,-0.005126953,-1.216431,-0.1219482,0,0,0,0,0,0
0.6666662,0.9415066,0.6850963,0,0,0,0,0,0,0,0,1,0,0,0,0,1,0,0,0,0,0,0.04052734,-0.9985352,-0.1635742,0,0,0,0,0,0
0.6699995,0.9409287,0.6766679,0,0,0,0,0,0,0,0,1,0,0,0,0,1,0,0,0,0,0,-0.0324707,-0.6090088,0.03149414,0,0,0,0,0,0
0.6733328,0.9409287,0.6766679,0,0,0,0,0,0,0,0,1,0,0,0,0,1,0,0,0,0,0,-0.09338379,-0.8878174,-0.2371826,0,0,0,0,0,0
0.6766661,0.9409287,0.6766679,0,0,0,0,0,0,0,0,1,0,0,0,0,1,0,0,0,0,0,-0.005859375,-1.038208,-0.1654053,0,0,0,0,0,0
0.6799995,0.9409287,0.6766679,0,0,0,0,0,0,0,0,1,0,0,0,0,1,0,0,0,0,0,0.07763672,-1.122925,-0.1479492,0,0,0,0,0,0
0.6833328,0.9409287,0.6766679,0,0,0,0,0,0,0,0,1,0,0,0,0,1,0,0,0,0,0,0.131958,-1.016968,-0.3253174,0,0,0,0,0,0
0.6866661,0.9409287,0.6766679,0,0,0,0,0,0,0,0,1,0,0,0,0,1,0,0,0,0,0,0.1555176,-0.944458,-0.4212646,0,0,0,0,0,0
0.6899995,0.9409287,0.6766679,0,0,0,0,0,0,0,0,1,0,0,0,0,1,0,0,-0.01174558,0.003998494,-0.01174558,0.1488037,-0.9874268,-0.447876,0,0,0,0,0,0
0.6933328,0.9409287,0.6766679,0,0,0,0,0,0,0,0,1,0,0,0,0,1,0,0,-0.01868667,-0.01084288,-0.00576749,0.1105957,-1.019165,-0.4403076,0,0,0,0,0,0
0.6966661,0.9409287,0.6766679,0,0,0,0,0,0,0,0,1,0,0,0,0,1,0,0,-0.02748965,-0.02449078,0.002249153,0.1018066,-0.9910889,-0.4615479,0,0,0,0,0,0
0.6999995,0.9409287,0.6766679,0,0,0,0,0,0,0,0,1,0,0,0,0,1,0,0,0,0,0,0.1018066,-0.9910889,-0.4615479,0,0,0,0,0,0
0.7033328,0.9409287,0.6766679,0,0,0,0,0,0,0,0,1,0,0,0,0,1,0,0,0,0,0,0.1037598,-0.953125,-0.4703369,0,0,0,0,0,0
0.7066661,0.9409287,0.6766679,0,0,0,0,0,0,0,0,1,0,0,0,0,1,0,0,0,0,0,0.1049805,-0.9193115,-0.4395752,0,0,0,0,0,0
0.7099994,0.9409287,0.6766679,0,0,0,0,0,0,0,0,1,0,0,0,0,1,0,0,0,0,0,0.1054688,-0.8878174,-0.3925781,0,0,0,0,0,0
0.7133328,0.9409287,0.6766679,0,0,0,0,0,0,0,0,1,0,0,0,0,1,0,0,0,0,0,0.09960938,-0.8752441,-0.3632813,0,0,0,0,0,0
0.7166661,0.9327032,0.6845161,0,0,0,0,0,0,0,0,1,0,0,0,0,1,0,0,0,0,0,0.0949707,-0.8771973,-0.3341064,0,0,0,0,0,0
0.7199994,0.9244941,0.6923701,0,0,0,0,0,0,0,0,1,0,0,0,0,1,0,0,0,0,0,0.09741211,-0.9106445,-0.2739258,0,0,0,0,0,0
0.7233328,0.8999631,0.7159706,0,0,0,0,0,0,0,0,1,0,0,0,0,1,0,0,0,0,0,0.05273438,-0.8924561,-0.1705322,0,0,0,0,0,0
0.7266661,0.8836871,0.731741,0,0,0,0,0,0,0,0,1,0,0,0,0,1,0,0,0,0,0,-0.02661133,-0.8985596,-0.1627197,0,0,0,0,0,0
0.7299994,0.8761782,0.7481521,0,0,0,0,0,0,0,0,1,0,0,0,0,1,0,0,0,0,0,0.009521484,-0.9320068,-0.2030029,0,0,0,0,0,0
0.7333328,0.8593862,0.7554604,0,0,0,0,0,0,0,0,1,0,0,0,0,1,0,0,0.04429432,-0.03068305,0.01314988,0.046875,-0.9290771,-0.2327881,0,0,0,0,0,0
0.7366661,0.8513149,0.7633857,0,0,0,0,0,0,0,0,1,0,0,0,0,1,0,0,0.05273015,-0.03273767,0.01724351,0.03771973,-0.958374,-0.2486572,0,0,0,0,0,0
0.7399994,0.8438712,0.7798811,0,0,0,0,0,0,0,0,1,0,0,0,0,1,0,0,0.05847798,-0.03598645,0.0124953,0.09570313,-0.8989258,-0.2990723,0,0,0,0,0,0
0.7433327,0.8358289,0.7878387,0,0,0,0,0,0,0,0,1,0,0,0,0,1,0,0,0.05905389,-0.03967683,0.01476347,0.0447998,-1.00708,-0.2827148,0,0,0,0,0,0
0.7466661,0.8191673,0.7951917,0,0,0,0,0,0,0,0,1,0,0,0,0,1,0,0,0.05747836,-0.04298382,0.02024238,0.009033203,-1.068604,-0.2224121,0,0,0,0,0,0
0.7499994,0.8191673,0.7951917,0,0,0,0,0,0,0,0,1,0,0,0,0,1,0,0,0,0,0,0.009033203,-1.068604,-0.2224121,0,0,0,0,0,0
0.7533327,0.8111632,0.8031714,0,0,0,0,0,0,0,0,1,0,0,0,0,0,0,0,0.042484,-0.03348739,0.02449078,-0.03747559,-1.0979,-0.1448975,0,0,0,0,0,0
0.7566661,0.7878387,0.8358289,0,0,0,0,0,0,0,0,1,0,0,0,0,0,0,0,0,0,0,-0.04833984,-1.065063,-0.09790039,0,0,0,0,0,0
0.7599994,0.7798811,0.8438712,0,0,0,0,0,0,0,0,1,0,0,0,0,0,0,0,0,0,0,0.006591797,-1.128418,-0.2056885,0,0,0,0,0,0
0.7633327,0.771321,0.8432577,0,0,0,0,0,0,0,0,1,0,0,0,0,0,0,0,0,0,0,-0.0748291,-0.9672852,-0.07055664,0,0,0,0,0,0
0.7666661,0.7633857,0.8513149,0,0,0,0,0,0,0,0,1,0,0,0,0,0,0,0,0,0,0,-0.08764648,-0.9631348,-0.08959961,0,0,0,0,0,0
0.7699994,0.763997,0.8599966,0,0,0,0,0,0,0,0,1,0,0,0,0,0,0,0,0,0,0,-0.07336426,-0.9439697,-0.1275635,0,0,0,0,0,0
0.7733327,0.7560699,0.8680802,0,0,0,0,0,0,0,0,1,0,0,0,0,0,0,0,0,0,0,-0.06433105,-0.9493408,-0.1448975,0,0,0,0,0,0
0.776666,0.7560699,0.8680802,0,0,0,0,0,0,0,0,1,0,0,0,0,0,0,0,0,0,0,-0.06726074,-0.9858398,-0.1556396,0,0,0,0,0,0
0.7799994,0.7560699,0.8680802,0,0,0,0,0,0,0,0,1,0,0,0,0,0,0,0,-0.03698608,0.03598645,-0.0169936,-0.06311035,-1.006348,-0.2145996,0,0,0,0,0,0
0.7833327,0.7560699,0.8680802,0,0,0,0,0,0,0,0,1,0,0,0,0,0,0,0,-0.04290634,0.02975762,-0.01568619,-0.05480957,-1.021973,-0.2644043,0,0,0,0,0,0
0.786666,0.7560699,0.8680802,0,0,0,0,0,0,0,0,1,0,0,0,0,0,0,0,-0.0549793,0.02773956,-0.01624388,-0.05224609,-1.019043,-0.2687988,0,0,0,0,0,0
0.7899994,0.7560699,0.8680802,0,0,0,0,0,0,0,0,1,0,0,0,0,0,0,0,-0.06022732,0.02449078,-0.01524426,-0.02404785,-0.9776611,-0.2475586,0,0,0,0,0,0
0.7933327,0.7560699,0.8680802,0,0,0,0,0,0,0,0,1,0,0,0,0,0,0,0,0,0,0,-0.02404785,-0.9776611,-0.2475586,0,0,0,0,0,0
0.796666,0.7566752,0.8767824,0,0,0,0,0,0,0,0,1,0,0,0,0,0,0,0,0,0,0,0.02539063,-0.9353027,-0.2250977,0,0,0,0,0,0
0.7999994,0.7566752,0.8767824,0,0,0,0,0,0,0,0,1,0,0,0,0,0,0,0,0,0,0,0.06945801,-0.913208,-0.2193604,0,0,0,0,0,0
0.8033327,0.7566752,0.8767824,0,0,0,0,0,0,0,0,1,0,0,0,0,0,0,0,0,0,0,0.06518555,-0.895874,-0.2164307,0,0,0,0,0,0
0.806666,0.7566752,0.8767824,0,0,0,0,0,0,0,0,1,0,0,0,0,0,0,0,0,0,0,0.03161621,-0.8830566,-0.2105713,0,0,0,0,0,0
0.8099993,0.7560699,0.8680802,0,0,0,0,0,0,0,0,1,0,0,0,0,0,0,0,0,0,0,0.02404785,-0.9102783,-0.1851807,0,0,0,0,0,0
0.8133327,0.7566752,0.8767824,0,0,0,0,0,0,0,0,1,0,0,0,0,0,0,0,0,0,0,0.007202148,-1.014771,-0.1166992,0,0,0,0,0,0
0.816666,0.7560699,0.8680802,0,0,0,0,0,0,0,0,1,0,0,0,0,0,0,0,0,0,0,-0.003417969,-1.033325,-0.1132813,0,0,0,0,0,0
0.8199993,0.7566752,0.8767824,0,0,0,0,0,0,0,0,1,0,0,0,0,0,0,0,0,0,0,-0.06506348,-1.009766,-0.1580811,0,0,0,0,0,0
0.8233327,0.7560699,0.8680802,0,0,0,0,0,0,0,0,1,0,0,0,0,0,0,0,0,0,0,-0.03918457,-1.026978,-0.1826172,0,0,0,0,0,0
0.826666,0.7560699,0.8680802,0,0,0,0,0,0,0,0,1,0,0,0,0,0,0,0,0,0,0,0.002685547,-1.01062,-0.2087402,0,0,0,0,0,0
0.8299993,0.7560699,0.8680802,0,0,0,0,0,0,0,0,1,0,0,0,0,1,0,0,-0.02998871,0.02324125,0.005747836,0.009277344,-1.008667,-0.2161865,0,0,0,0,0,0
0.8333327,0.7566752,0.8767824,0,0,0,0,0,0,0,0,1,0,0,0,0,1,0,0,-0.02837605,0.01753317,0.003921893,0.002197266,-0.9818115,-0.21521,0,0,0,0,0,0
0.836666,0.7566752,0.8767824,0,0,0,0,0,0,0,0,1,0,0,0,0,1,0,0,0,0,0,0.002197266,-0.9818115,-0.21521,0,0,0,0,0,0
0.8399993,0.7566752,0.8767824,0,0,0,0,0,0,0,0,1,0,0,0,0,1,0,0,0,0,0,0.00390625,-0.9770508,-0.2076416,0,0,0,0,0,0
0.8433326,0.7566752,0.8767824,0,0,0,0,0,0,0,0,1,0,0,0,0,1,0,0,0,0,0,0.02392578,-0.9746094,-0.2124023,0,0,0,0,0,0
0.846666,0.7566752,0.8767824,0,0,0,0,0,0,0,0,1,0,0,0,0,1,0,0,0,0,0,0.04516602,-0.9547119,-0.2358398,0,0,0,0,0,0
0.8499993,0.7560699,0.8680802,0,0,0,0,0,0,0,0,1,0,0,0,0,1,0,0,0,0,0,0.04663086,-0.9522705,-0.2567139,0,0,0,0,0,0
0.8533326,0.7566752,0.8767824,0,0,0,0,0,0,0,0,1,0,0,0,0,1,0,0,0,0,0,0.02648926,-0.9432373,-0.2470703,0,0,0,0,0,0
0.856666,0.7560699,0.8680802,0,0,0,0,0,0,0,0,1,0,0,0,0,1,0,0,0,0,0,0.005981445,-0.9396973,-0.204834,0,0,0,0,0,0
0.8599993,0.7566752,0.8767824,0,0,0,0,0,0,0,0,1,0,0,0,0,1,0,0,0,0,0,-0.01367188,-0.9649658,-0.2598877,0,0,0,0,0,0
0.8633326,0.7566752,0.8767824,0,0,0,0,0,0,0,0,1,0,0,0,0,1,0,0,0,0,0,0.01696777,-1.006592,-0.2746582,0,0,0,0,0,0
0.866666,0.7560699,0.8680802,0,0,0,0,0,0,0,0,1,0,0,0,0,1,0,0,0,0,0,0.04760742,-0.9794922,-0.2922363,0,0,0,0,0,0
0.8699993,0.7566752,0.8767824,0,0,0,0,0,0,0,0,1,0,0,0,0,1,0,0,0.001249529,-0.002499059,-0.007996988,0.08898926,-0.9516602,-0.3583984,0,0,0,0,0,0
0.8733326,0.7560699,0.8680802,0,0,0,0,0,0,0,0,1,0,0,0,0,1,0,0,0.008073773,-0.01014989,-0.007843095,0.1156006,-0.9415283,-0.3779297,0,0,0,0,0,0
0.8766659,0.7560699,0.8680802,0,0,0,0,0,0,0,0,1,0,0,0,0,1,0,0,0,0,0,0.1156006,-0.9415283,-0.3779297,0,0,0,0,0,0
0.8799993,0.7566752,0.8767824,0,0,0,0,0,0,0,0,1,0,0,0,0,1,0,0,0,0,0,0.1210938,-0.9136963,-0.3834229,0,0,0,0,0,0
0.8833326,0.7560699,0.8680802,0,0,0,0,0,0,0,0,1,0,0,0,0,1,0,0,0,0,0,0.1016846,-0.8864746,-0.3695068,0,0,0,0,0,0
0.8866659,0.7560699,0.8680802,0,0,0,0,0,0,0,0,1,0,0,0,0,1,0,0,0,0,0,0.0793457,-0.913208,-0.3515625,0,0,0,0,0,0
0.8899993,0.765208,0.877385,0,0,0,0,0,0,0,0,1,0,0,0,0,1,0,0,0,0,0,0.0723877,-0.9440918,-0.3276367,0,0,0,0,0,0
0.8933326,0.7646044,0.8686867,0,0,0,0,0,0,0,0,1,0,0,0,0,1,0,0,0,0,0,0.04333496,-0.9935303,-0.2419434,0,0,0,0,0,0
0.8966659,0.7646044,0.8686867,0,0,0,0,0,0,0,0,1,0,0,0,0,1,0,0,0,0,0,0.01843262,-1.001831,-0.1854248,0,0,0,0,0,0
0.8999993,0.7646044,0.8686867,0,0,0,0,0,0,0,0,1,0,0,0,0,1,0,0,0,0,0,0.02001953,-1.011108,-0.1931152,0,0,0,0,0,0
0.9033326,0.7646044,0.8686867,0,0,0,0,0,0,0,0,0,0,0,0,0,1,0,0,0,0,0,0.02453613,-1.005737,-0.2226563,0,0,0,0,0,0
0.9066659,0.7646044,0.8686867,0,0,0,0,0,0,0,0,0,0,0,0,0,0,0,0,0,0,0,0.04125977,-1.025269,-0.2426758,0,0,0,0,0,0
0.9099993,0.7646044,0.8686867,0,0,0,0,0,0,0,0,0,0,0,0,0,0,0,0,0.05372977,-0.01349492,0.01949266,0.06298828,-1.046509,-0.244873,0,0,0,0,0,0
0.9133326,0.7646044,0.8686867,0,0,0,0,0,0,0,0,0,0,0,0,0,0,0,0,0.05148061,-0.01099586,0.01924275,0.02441406,-1.016235,-0.2327881,0,0,0,0,0,0
0.9166659,0.7646044,0.8686867,0,0,0,0,0,0,0,0,0,0,0,0,0,0,0,0,0.04359838,-0.007612415,0.01660891,0.008544922,-1.081543,-0.2053223,0,0,0,0,0,0
0.9199992,0.7646044,0.8686867,0,0,0,0,0,0,0,0,0,0,0,0,0,0,0,0,0.02674211,-0.009997049,0.02549248,0.04821777,-1.10498,-0.2911377,0,0,0,0,0,0
0.9233326,0.7646044,0.8686867,0,0,0,0,0,0,0,0,0,0,0,0,0,0,0,0,0,0,0,0.04821777,-1.10498,-0.2911377,0,0,0,0,0,0
0.9266659,0.7731484,0.8692912,0,0,0,0,0,0,0,0,0,0,0,0,0,0,0,0,0,0,0,-0.03564453,-0.9865723,-0.109375,0,0,0,0,0,0
0.9299992,0.7731484,0.8692912,0,0,0,0,0,0,0,0,0,0,0,0,0,0,0,0,0,0,0,-0.02416992,-0.9599609,-0.1384277,0,0,0,0,0,0
0.9333326,0.7731484,0.8692912,0,0,0,0,0,0,0,0,0,0,0,0,0,0,0,0,0,0,0,-0.01831055,-0.9903564,-0.0958252,0,0,0,0,0,0
0.9366659,0.7731484,0.8692912,0,0,0,0,0,0,0,0,0,0,0,0,0,0,0,0,0,0,0,-0.01049805,-1.007202,-0.07336426,0,0,0,0,0,0
0.9399992,0.7731484,0.8692912,0,0,0,0,0,0,0,0,0,0,0,0,0,0,0,0,0,0,0,0.0007324219,-1.0271,-0.1102295,0,0,0,0,0,0
0.9433326,0.7731484,0.8692912,0,0,0,0,0,0,0,0,0,0,0,0,0,0,0,0,0,0,0,0.005249023,-1.03894,-0.2084961,0,0,0,0,0,0
0.9466659,0.7731484,0.8692912,0,0,0,0,0,0,0,0,0,0,0,0,0,0,0,0,0,0,0,0.006713867,-1.052002,-0.2647705,0,0,0,0,0,0
0.9499992,0.7731484,0.8692912,0,0,0,0,0,0,0,0,0,0,0,0,0,0,0,0,-0.042484,0.01874294,-0.01574407,0.02429199,-1.069458,-0.2618408,0,0,0,0,0,0
0.9533325,0.7731484,0.8692912,0,0,0,0,0,0,0,0,0,0,0,0,0,0,0,0,-0.04623259,0.01549417,-0.01199548,0.06921387,-1.070679,-0.241333,0,0,0,0,0,0
0.9566659,0.7731484,0.8692912,0,0,0,0,0,0,0,0,0,0,0,0,0,0,0,0,-0.04359838,0.0110726,-0.006459019,0.1048584,-1.040894,-0.2285156,0,0,0,0,0,0
0.9599992,0.7731484,0.8692912,0,0,0,0,0,0,0,0,0,0,0,0,0,0,0,0,0,0,0,0.1048584,-1.040894,-0.2285156,0,0,0,0,0,0
0.9633325,0.7731484,0.8692912,0,0,0,0,0,0,0,0,0,0,0,0,0,0,0,0,0,0,0,0.1063232,-0.9842529,-0.1815186,0,0,0,0,0,0
0.9666659,0.7731484,0.8692912,-0.01158581,-0.008777132,0,0,0,0,0,0,0,0,0,0,0,0,0,0,0,0,0,0.06408691,-1.057373,-0.1207275,0,0,0,0,0,0
0.9699992,0.7731484,0.8692912,-0.03900439,-0.0347877,0,0,0,0,0,0,0,0,0,0,0,0,0,0,0,0,0,-0.04968262,-1.064453,-0.1350098,0,0,0,0,0,0
0.9733325,0.7731484,0.8692912,-0.08282891,-0.08282891,0,0,0,0,0,0,0,0,0,0,0,0,0,0,0,0,0,-0.09960938,-1.118652,-0.1376953,0,0,0,0,0,0
0.9766659,0.7731484,0.8692912,-0.1403619,-0.1452869,0,0,0,0,0,0,0,0,0,0,0,0,0,0,0,0,0,-0.06835938,-1.182129,-0.09326172,0,0,0,0,0,0
0.9799992,0.7731484,0.8692912,-0.206247,-0.2178666,0,0,0,0,0,0,0,0,0,0,0,1,0,0,0,0,0,-0.03173828,-1.170288,-0.06323242,0,0,0,0,0,0
0.9833325,0.7731484,0.8692912,-0.2885997,-0.3015705,0,0,0,0,0,0,0,0,0,0,0,1,0,0,0,0,0,-0.01208496,-1.150635,-0.05249023,0,0,0,0,0,0
0.9866658,0.7731484,0.8692912,-0.371183,-0.3850589,0,0,0,0,0,0,0,0,0,0,0,1,0,0,-0.1641882,0.02723974,0.03473692,-0.01330566,-1.1521,-0.05151367,0,0,0,0,0,0
0.9899992,0.7731484,0.8692912,-0.464057,-0.485981,0,0,0,0,0,0,0,0,0,0,0,1,0,0,-0.1686265,0.02606675,0.0232986,-0.0703125,-1.024292,0.0880127,0,0,0,0,0,0
0.9933325,0.7731484,0.8692912,-0.464057,-0.485981,0,0,0,0,0,0,0,0,0,0,0,1,0,0,0,0,0,-0.0703125,-1.024292,0.0880127,0,0,0,0,0,0
0.9966658,0.7731484,0.8692912,-0.565131,-0.587888,0,0,0,0,0,0,0,0,0,0,0,1,0,0,0,0,0,-0.201416,-1.056396,0.0447998,0,0,0,0,0,0
0.9999992,0.7646044,0.8686867,-0.7742289,-0.766288,0,0,0,0,0,0,0,0,0,0,0,1,0,0,-0.1794685,0.06643562,0.002768151,-0.06872559,-1.059204,0.03955078,0,0,0,0,0,0
1.003332,0.7646044,0.8686867,-0.7742289,-0.766288,0,0,0,0,0,0,0,0,0,0,0,1,0,0,0,0,0,-0.06872559,-1.059204,0.03955078,0,0,0,0,0,0
1.006666,0.7646044,0.8686867,-0.8147796,-0.7352889,0,0,0,0,0,0,0,0,0,0,0,1,0,0,0,0,0,0.04553223,-1.085205,-0.1303711,0,0,0,0,0,0
1.009999,0.7646044,0.8686867,-0.8625466,-0.6797026,0,0,0,0,0,0,0,0,0,0,0,1,0,0,0,0,0,0.04992676,-0.9846191,-0.3631592,0,0,0,0,0,0
1.013332,0.7560699,0.8680802,-0.885148,-0.6311145,0,0,0,0,0,0,0,0,0,0,0,1,0,0,0,0,0,0.08752441,-0.8989258,-0.5339355,0,0,0,0,0,0
1.016666,0.7560699,0.8680802,-0.925144,-0.5757334,0,0,0,0,0,0,0,0,0,0,0,1,0,0,0,0,0,0.1582031,-0.8571777,-0.6029053,0,0,0,0,0,0
1.019999,0.7560699,0.8680802,-0.9484507,-0.527799,0,0,0,0,0,0,0,0,0,0,0,1,0,0,0,0,0,0.2469482,-0.8320313,-0.6313477,0,0,0,0,0,0
1.023332,0.7481521,0.8761782,-0.9636579,-0.4877774,0,0,0,0,0,0,0,0,0,0,0,1,0,0,0,0,0,0.2861328,-0.8111572,-0.6601563,0,0,0,0,0,0
1.026666,0.7396386,0.8755721,-0.9795809,-0.4560802,0,0,0,0,0,0,0,0,0,0,0,1,0,0,0,0,0,0.2858887,-0.7803955,-0.6375732,0,0,0,0,0,0
1.029999,0.731741,0.8836871,-0.987129,-0.4321167,0,0,0,0,0,0,0,0,0,0,0,1,0,0,0,0,0,0.2363281,-0.7850342,-0.5718994,0,0,0,0,0,0
1.033332,0.7232483,0.8830822,-0.9952164,-0.4163256,0,0,0,0,0,0,0,0,0,0,0,1,0,0,0,0,0,0.1600342,-0.8041992,-0.5230713,0,0,0,0,0,0
1.036666,0.7153703,0.8912154,-0.9947569,-0.408207,0,0,0,0,0,0,0,0,0,0,0,1,0,0,0,0,0,0.1136475,-0.8127441,-0.4852295,0,0,0,0,0,0
1.039999,0.6996371,0.9075292,-1,-0.4005468,0,0,0,0,0,0,0,0,0,0,0,1,0,0,0,0,0,0.08251953,-0.8172607,-0.4337158,0,0,0,0,0,0
1.043332,0.6839312,0.923907,-1,-0.3924417,0,0,0,0,0,0,0,0,0,0,0,1,0,0,0,0,0,0.06628418,-0.8024902,-0.3897705,0,0,0,0,0,0
1.046666,0.6598403,0.9397725,-1,-0.3847782,0,0,0,0,0,0,0,0,0,0,0,1,0,0,0,0,0,0.07324219,-0.8041992,-0.3856201,0,0,0,0,0,0
1.049999,0.6358177,0.9557259,-1,-0.3766855,0,0,0,0,0,0,0,0,0,0,0,1,0,0,0,0,0,0.07653809,-0.7921143,-0.4123535,0,0,0,0,0,0
1.053332,0.6118565,0.9717721,-1,-0.3686016,0,0,0,0,0,0,0,0,0,0,0,1,0,0,0.04798193,-0.1132074,0.01499435,0.06384277,-0.7731934,-0.3704834,0,0,0,0,0,0
1.056666,0.579634,0.9873765,-1,-0.3605264,0,0,0,0,0,0,0,0,0,0,0,1,0,0,0.07597139,-0.1072096,0.01349492,-0.009521484,-0.7792969,-0.2874756,0,0,0,0,0,0
1.059999,0.579634,0.9873765,-1,-0.3605264,0,0,0,0,0,0,0,0,0,0,0,1,0,0,0,0,0,-0.009521484,-0.7792969,-0.2874756,0,0,0,0,0,0
1.063332,0.547518,1,-1,-0.3444016,0,0,0,0,0,0,0,0,0,0,0,1,0,0,0,0,0,-0.03234863,-0.8012695,-0.2349854,0,0,0,0,0,0
1.066666,0.5072563,1,-1,-0.3283107,0,0,0,0,0,0,0,0,0,0,0,1,0,0,0,0,0,-0.04614258,-0.8587646,-0.2210693,0,0,0,0,0,0
1.069999,0.4662001,1,-1,-0.3202776,0,0,0,0,0,0,0,0,0,0,0,1,0,0,0,0,0,-0.02905273,-0.9272461,-0.2075195,0,0,0,0,0,0
1.073332,0.4253754,1,-1,-0.2962267,0,0,0,0,0,0,0,0,0,0,0,1,0,0,0,0,0,0.01879883,-0.9729004,-0.2080078,0,0,0,0,0,0
1.076666,0.3928797,1,-1,-0.2882255,0,0,0,0,0,0,0,0,0,0,0,0,0,0,0,0,0,0.05285645,-0.9844971,-0.211792,0,0,0,0,0,0
1.079999,0.3444016,1,-1,-0.2802319,0,0,0,0,0,0,0,0,0,0,0,0,0,0,0,0,0,0.01477051,-1.042603,-0.2254639,0,0,0,0,0,0
1.083332,0.3122526,1,-1,-0.2722459,0,0,0,0,0,0,0,0,0,0,0,0,0,0,0,0,0,-0.02600098,-1.175415,-0.1845703,0,0,0,0,0,0
1.086666,0.2722459,1,-1,-0.2562958,0,0,0,0,0,0,0,0,0,0,0,0,0,0,0,0,0,-0.07592773,-1.112427,-0.2692871,0,0,0,0,0,0
1.089999,0.2403741,1,-1,-0.2483314,0,0,0,0,0,0,0,0,0,0,0,0,0,0,0,0,0,-0.1022949,-0.9644775,-0.07373047,0,0,0,0,0,0
1.093332,0.2006854,1,-1,-0.2403741,0,0,0,0,0,0,0,0,0,0,0,0,0,0,0.0464825,-0.007497177,0.06847422,-0.1025391,-0.9719238,-0.1185303,0,0,0,0,0,0
1.096666,0.1690417,1,-1,-0.2324234,0,0,0,0,0,0,0,0,0,0,0,0,0,0,0.04373353,0.004498306,0.05697855,-0.09033203,-0.9407959,-0.1297607,0,0,0,0,0,0
1.099999,0.1453634,1,-1,-0.2165419,0,0,0,0,0,0,0,0,0,0,0,0,0,0,0.03991103,0.01153498,0.04244872,-0.0802002,-0.9616699,-0.1433105,0,0,0,0,0,0
1.103332,0.1453634,1,-1,-0.2165419,0,0,0,0,0,0,0,0,0,0,0,0,0,0,0,0,0,-0.0802002,-0.9616699,-0.1433105,0,0,0,0,0,0
1.106666,0.1217254,1,-1,-0.2006854,0,0,0,0,0,0,0,0,0,0,0,0,0,0,0,0,0,-0.06652832,-1.000122,-0.2080078,0,0,0,0,0,0
1.109999,0.1059862,1,-1,-0.1769445,0,0,0,0,0,0,0,0,0,0,0,0,0,0,0,0,0,-0.05212402,-1.031128,-0.3035889,0,0,0,0,0,0
1.113332,0.09026043,1,-1,-0.1532514,0,0,0,0,0,0,0,0,0,0,0,0,0,0,0,0,0,-0.04309082,-1.045776,-0.3474121,0,0,0,0,0,0
1.116666,0.07454614,1,-1,-0.1296006,0,0,0,0,0,0,0,0,0,0,0,0,0,0,0,0,0,-0.03112793,-1.030884,-0.3145752,0,0,0,0,0,0
1.119999,0.06669273,1,-1,-0.113854,0,0,0,0,0,0,0,0,0,0,0,0,0,0,0,0,0,-0.01208496,-0.9970703,-0.258667,0,0,0,0,0,0
1.123332,0.05884144,1,-1,-0.09026043,0,0,0,0,0,0,0,0,0,0,0,0,0,0,0,0,0,0,-0.9885254,-0.2381592,0,0,0,0,0,0
1.126666,0.05099206,1,-1,-0.05884144,0,0,0,0,0,0,0,0,0,0,0,0,0,0,0,0,0,-0.004150391,-1.001587,-0.2071533,0,0,0,0,0,0
1.129999,0.05099206,1,-1,-0.04314433,0,0,0,0,0,0,0,0,0,0,0,0,0,0,0,0,0,-0.03149414,-1.006836,-0.1809082,0,0,0,0,0,0
1.133332,0.05099206,1,-1,-0.01176485,0,0,0,0,0,0,0,0,0,0,0,0,0,0,0.006459019,-0.01176464,0.01453279,-0.05383301,-1.003906,-0.1713867,0,0,0,0,0,0
1.136666,0.05099206,1,-1,0.02745281,0,0,0,0,0,0,0,0,0,0,0,0,0,0,0.001999247,-0.01299511,0.01499435,-0.04138184,-1.090698,-0.1274414,0,0,0,0,0,0
1.139999,0.05099206,1,-1,0.05884144,0,0,0,0,0,0,0,0,0,0,0,0,0,0,-0.01524426,-0.01349492,0.01774332,-0.008544922,-1.131958,-0.1087646,0,0,0,0,0,0
1.143332,0.05099206,1,-1,0.09812176,0,0,0,0,0,0,0,0,0,0,0,0,0,0,-0.0311417,-0.012226,0.01591687,-0.08642578,-1.067261,-0.144165,0,0,0,0,0,0
1.146666,0.05099206,1,-1,0.1374799,0,0,0,0,0,0,0,0,0,0,0,0,0,0,-0.0494854,-0.01499558,0.0142458,-0.08190918,-1.059082,-0.1856689,0,0,0,0,0,0
1.149999,0.05099206,1,-1,0.1374799,0,0,0,0,0,0,0,0,0,0,0,0,0,0,0,0,0,-0.08190918,-1.059082,-0.1856689,0,0,0,0,0,0
1.153332,0.05099206,1,-1,0.1848525,0,0,0,0,0,0,0,0,0,0,0,0,0,0,0,0,0,-0.04064941,-1.062134,-0.2365723,0,0,0,0,0,0
1.156666,0.06669273,1,-1,0.2165419,0,0,0,0,0,0,0,0,0,0,0,1,0,0,0,0,0,-0.02478027,-1.065674,-0.2625732,0,0,0,0,0,0
1.159999,0.09026043,1,-1,0.2562958,0,0,0,0,0,0,0,0,0,0,0,1,0,0,0,0,0,-0.03442383,-1.015625,-0.2512207,0,0,0,0,0,0
1.163332,0.1217254,1,-1,0.2962267,0,0,0,0,0,0,0,0,0,0,0,1,0,0,0,0,0,-0.04467773,-0.9526367,-0.2241211,0,0,0,0,0,0
1.166666,0.1532514,1,-1,0.336352,0,0,0,0,0,0,0,0,0,0,0,1,0,0,0,0,0,-0.09448242,-0.918457,-0.08166504,0,0,0,0,0,0
1.169999,0.1927661,1,-1,0.3766855,0,0,0,0,0,0,0,0,0,0,0,1,0,0,0,0,0,-0.1525879,-0.6959229,-0.109375,0,0,0,0,0,0
1.173332,0.2324234,1,-1,0.4091095,0,0,0,0,0,0,0,0,0,0,0,1,0,0,0,0,0,-0.1818848,-0.7751465,-0.230957,0,0,0,0,0,0
1.176666,0.2642672,1,-1,0.4253754,0,0,0,0,0,0,0,0,0,0,0,1,0,0,0,0,0,-0.1060791,-0.9387207,-0.1480713,0,0,0,0,0,0
1.179999,0.3122526,1,-1,0.433522,0,0,0,0,0,0,0,0,0,0,0,1,0,0,0.02923899,-0.003248777,-0.0337373,0.01184082,-0.9586182,-0.2026367,0,0,0,0,0,0
1.183332,0.3605264,1,-1,0.433522,0,0,0,0,0,0,0,0,0,0,0,1,0,0,0.02768151,-0.008765811,-0.03044966,0.07470703,-0.9505615,-0.3457031,0,0,0,0,0,0
1.186666,0.4172379,1,-1,0.433522,0,0,0,0,0,0,0,0,0,0,0,1,0,0,0.02599021,-0.02399097,-0.03848551,0.02453613,-0.9365234,-0.3988037,0,0,0,0,0,0
1.189999,0.4172379,1,-1,0.433522,0,0,0,0,0,0,0,0,0,0,0,1,0,0,0,0,0,0.02453613,-0.9365234,-0.3988037,0,0,0,0,0,0
1.193332,0.4662001,1,-1,0.433522,0,0,0,0,0,0,0,0,0,0,0,1,0,0,0,0,0,-0.004760742,-0.9404297,-0.3867188,0,0,0,0,0,0
1.196666,0.5072563,1,-1,0.433522,0,0,0,0,0,0,0,0,0,0,0,1,0,0,0,0,0,0.005371094,-0.9333496,-0.395752,0,0,0,0,0,0
1.199999,0.540269,1,-1,0.433522,0,0,0,0,0,0,0,0,0,0,0,1,0,0,0,0,0,0.03894043,-0.9277344,-0.4346924,0,0,0,0,0,0
1.203332,0.5734303,1,-1,0.433522,0,0,0,0,0,0,0,0,0,0,0,1,0,0,0,0,0,0.04553223,-0.9107666,-0.4327393,0,0,0,0,0,0
1.206666,0.606739,1,-1,0.433522,0,0,0,0,0,0,0,0,0,0,0,1,0,0,0,0,0,0.03430176,-0.8759766,-0.3967285,0,0,0,0,0,0
1.209999,0.6302155,1,-1,0.433522,0,0,0,0,0,0,0,0,0,0,0,1,0,0,0,0,0,0.04382324,-0.8723145,-0.3712158,0,0,0,0,0,0
1.213332,0.6626692,0.9839633,-1,0.433522,0,0,0,0,0,0,0,0,0,0,0,1,0,0,0,0,0,0.05432129,-0.9116211,-0.3746338,0,0,0,0,0,0
1.216666,0.6862423,0.959134,-1,0.433522,0,0,0,0,0,0,0,0,0,0,0,1,0,0,0,0,0,0.06066895,-0.9310303,-0.3637695,0,0,0,0,0,0
1.219999,0.7019819,0.9426614,-1,0.433522,0,0,0,0,0,0,0,0,0,0,0,1,0,0,0.06822432,-0.1047106,-0.06322619,0.05297852,-0.9603271,-0.3225098,0,0,0,0,0,0
1.223332,0.7177448,0.9262516,-1,0.433522,0,0,0,0,0,0,0,0,0,0,0,1,0,0,0.05997742,-0.09921265,-0.06097704,0.03942871,-1.008057,-0.2202148,0,0,0,0,0,0
1.226666,0.7177448,0.9262516,-1,0.433522,0,0,0,0,0,0,0,0,0,0,0,1,0,0,0,0,0,0.03942871,-1.008057,-0.2202148,0,0,0,0,0,0
1.229999,0.7341238,0.9186576,-1,0.433522,0,0,0,0,0,0,0,0,0,0,0,1,0,0,0,0,0,-0.01525879,-1.014526,-0.1903076,0,0,0,0,0,0
1.233332,0.7505404,0.9110838,-1,0.433522,0,0,0,0,0,0,0,0,0,0,0,1,0,0,0,0,0,-0.03515625,-1.050659,-0.2084961,0,0,0,0,0,0
1.236666,0.7578744,0.8942115,-1,0.433522,0,0,0,0,0,0,0,0,0,0,0,1,0,0,0,0,0,0.00769043,-1.03772,-0.2034912,0,0,0,0,0,0
1.239999,0.7743478,0.8866885,-1,0.4091095,0,0,0,0,0,0,0,0,0,0,0,1,0,0,0,0,0,0.04968262,-1.032104,-0.1960449,0,0,0,0,0,0
1.243332,0.7908618,0.8791813,-1,0.3686016,0,0,0,0,0,0,0,0,0,0,0,1,0,0,0,0,0,0.1134033,-1.019043,-0.2139893,0,0,0,0,0,0
1.246666,0.8068197,0.8630162,-1,0.3283107,0,0,0,0,0,0,0,0,0,0,0,1,0,0,0,0,0,0.135376,-0.9919434,-0.2561035,0,0,0,0,0,0
1.249999,0.8142135,0.8463007,-1,0.2882255,0,0,0,0,0,0,0,0,0,0,0,0,0,0,0.07522168,-0.02873918,0.01749341,0.1320801,-0.9714355,-0.2633057,0,0,0,0,0,0
1.253332,0.8463007,0.8142135,-1,0.1611441,0,0,0,0,0,0,0,0,0,0,0,0,0,0,0,0,0,0.05993652,-1.191406,-0.2872314,0,0,0,0,0,0
1.256666,0.8543524,0.8062198,-1,0.1217254,0,0,0,0,0,0,0,0,0,0,0,0,0,0,0,0,0,0.0189209,-1.019531,-0.1706543,0,0,0,0,0,0
1.259999,0.8624167,0.7982369,-1,0.09026043,0,0,0,0,0,0,0,0,0,0,0,0,0,0,0.04452109,-0.03529393,0.06251407,-0.07189941,-1.053711,-0.1130371,0,0,0,0,0,0
1.263332,0.8704941,0.7902642,-1,0.05099206,0,0,0,0,0,0,0,0,0,0,0,0,0,0,0.0467324,-0.01949266,0.06322619,-0.1297607,-1.050659,-0.05725098,0,0,0,0,0,0
1.266666,0.8785846,0.7823013,-1,0.02745281,0,0,0,0,0,0,0,0,0,0,0,0,0,0,0.04123447,-0.001749341,0.05547911,-0.1223145,-1.047241,-0.07531738,0,0,0,0,0,0
1.269999,0.8785846,0.7823013,-1,0.02745281,0,0,0,0,0,0,0,0,0,0,0,0,0,0,0,0,0,-0.1223145,-1.047241,-0.07531738,0,0,0,0,0,0
1.273332,0.8866885,0.7743478,-1,-0.003921574,0,0,0,0,0,0,0,0,0,0,0,0,0,0,0,0,0,-0.0958252,-1.041382,-0.09509277,0,0,0,0,0,0
1.276666,0.8948063,0.7664036,-1,-0.01960851,0,0,0,0,0,0,0,0,0,0,0,0,0,0,0,0,0,-0.07373047,-1.014038,-0.1381836,0,0,0,0,0,0
1.279999,0.9029379,0.7584679,-1,-0.035298,0,0,0,0,0,0,0,0,0,0,0,0,0,0,0,0,0,-0.05163574,-0.9829102,-0.2019043,0,0,0,0,0,0
1.283332,0.9110838,0.7505404,-1,-0.05099206,0,0,0,0,0,0,0,0,0,0,0,0,0,0,0,0,0,-0.03894043,-0.9814453,-0.2561035,0,0,0,0,0,0
1.286666,0.9186576,0.7341238,-1,-0.05884144,0,0,0,0,0,0,0,0,0,0,0,0,0,0,0,0,0,-0.03625488,-0.9810791,-0.2712402,0,0,0,0,0,0
1.289999,0.926836,0.7262222,-1,-0.07454614,0,0,0,0,0,0,0,0,0,0,0,0,0,0,0,0,0,-0.02478027,-0.9365234,-0.2694092,0,0,0,0,0,0
1.293332,0.9356093,0.7268038,-1,-0.08240198,0,0,0,0,0,0,0,0,0,0,0,0,0,0,0,0,0,-0.01330566,-0.9188232,-0.2641602,0,0,0,0,0,0
1.296666,0.9350294,0.7183273,-1,-0.09026043,0,0,0,0,0,0,0,0,0,0,0,0,0,0,0,0,0,-0.02539063,-0.9133301,-0.2597656,0,0,0,0,0,0
1.299999,0.9432381,0.710439,-1,-0.1059862,0,0,0,0,0,0,0,0,0,0,0,0,0,0,0,0,0,-0.04174805,-0.8868408,-0.2525635,0,0,0,0,0,0
1.303332,0.9514624,0.7025566,-1,-0.113854,0,0,0,0,0,0,0,0,0,0,0,0,0,0,0.05547911,0.03248777,-0.02873918,-0.04833984,-0.8925781,-0.2219238,0,0,0,0,0,0
1.306666,0.9508898,0.6941094,-1,-0.113854,0,0,0,0,0,0,0,0,0,0,0,0,0,0,0.06597516,0.03448702,-0.03273767,-0.07568359,-0.9598389,-0.1865234,0,0,0,0,0,0
1.309999,0.959134,0.6862423,-1,-0.1217254,0,0,0,0,0,0,0,0,0,0,0,0,0,0,0.06274476,0.0355246,-0.0311417,-0.0892334,-1.02002,-0.1612549,0,0,0,0,0,0
1.313332,0.959134,0.6862423,-1,-0.1217254,0,0,0,0,0,0,0,0,0,0,0,0,0,0,0,0,0,-0.0892334,-1.02002,-0.1612549,0,0,0,0,0,0
1.316666,0.9673942,0.6783802,-1,-0.1217254,0,0,0,0,0,0,0,0,0,0,0,0,0,0,0,0,0,-0.05969238,-1.055542,-0.1746826,0,0,0,0,0,0
1.319999,0.9673942,0.6783802,-1,-0.1217254,0,0,0,0,0,0,0,0,0,0,0,0,0,0,0,0,0,-0.04541016,-1.037842,-0.1918945,0,0,0,0,0,0
1.323332,0.9756706,0.6705226,-1,-0.1217254,0,0,0,0,0,0,0,0,0,0,0,0,0,0,0,0,0,-0.002563477,-1.030151,-0.2004395,0,0,0,0,0,0
1.326666,0.975112,0.6621131,-1,-0.1217254,0,0,0,0,0,0,0,0,0,0,0,0,0,0,0,0,0,0.03674316,-1.044067,-0.2084961,0,0,0,0,0,0
1.329999,0.9839633,0.6626692,-1,-0.1217254,0,0,0,0,0,0,0,0,0,0,0,0,0,0,0,0,0,0.04064941,-1.067871,-0.2000732,0,0,0,0,0,0
1.333332,0.9834099,0.6542686,-1,-0.113854,0,0,0,0,0,0,0,0,0,0,0,0,0,0,0,0,0,0.01171875,-1.074829,-0.1842041,0,0,0,0,0,0
1.336666,0.9917243,0.6464276,-0.9914975,-0.09013613,0,0,0,0,0,0,0,0,0,0,0,0,0,0,0,0,0,-0.006347656,-1.046997,-0.1867676,0,0,0,0,0,0
1.339999,0.991177,0.6380451,-0.9542872,-0.06621584,0,0,0,0,0,0,0,0,0,0,0,0,0,0,0,0,0,0.002197266,-1.023804,-0.2017822,0,0,0,0,0,0
1.343332,0.991177,0.6380451,-0.9263688,-0.04263622,0,0,0,0,0,0,0,0,0,0,0,1,0,0,0,0,0,0.007324219,-1.012451,-0.2197266,0,0,0,0,0,0
1.346666,0.991177,0.6380451,-0.8616353,-0.01914745,0,0,0,0,0,0,0,0,0,0,0,1,0,0,0,0,0,0.005981445,-0.9908447,-0.2493896,0,0,0,0,0,0
1.349999,0.991177,0.6380451,-0.8247297,0.01900299,0,0,0,0,0,0,0,0,0,0,0,1,0,0,0,0,0,0.01379395,-0.9633789,-0.2687988,0,0,0,0,0,0
1.353332,1,0.6385895,-0.7605721,0.05619991,0,0,0,0,0,0,0,0,0,0,0,1,0,0,0,0,0,0.03027344,-0.9384766,-0.2900391,0,0,0,0,0,0
1.356665,1,0.6302155,-0.6970256,0.09219915,0,0,0,0,0,0,0,0,0,0,0,1,0,0,0,0,0,0.03930664,-0.923584,-0.3138428,0,0,0,0,0,0
1.359999,1,0.6302155,-0.6339675,0.1195482,0,0,0,0,0,0,0,0,0,0,0,1,0,0,0.06122695,0.02324125,-0.008746706,0.04553223,-0.9090576,-0.3272705,0,0,0,0,0,0
1.363332,1,0.6302155,-0.5722968,0.1528494,0,0,0,0,0,0,0,0,0,0,0,1,0,0,0.07172299,0.01824313,-0.01099586,0.05200195,-0.8925781,-0.3300781,0,0,0,0,0,0
1.366665,1,0.6302155,-0.510786,0.170262,0,0,0,0,0,0,0,0,0,0,0,1,0,0,0.08446819,0.01399473,-0.01374483,0.05688477,-0.8867188,-0.3150635,0,0,0,0,0,0
1.369999,1,0.6302155,-0.510786,0.170262,0,0,0,0,0,0,0,0,0,0,0,1,0,0,0,0,0,0.05688477,-0.8867188,-0.3150635,0,0,0,0,0,0
1.373332,1,0.6302155,-0.4577541,0.1729293,0,0,0,0,0,0,0,0,0,0,0,1,0,0,0,0,0,0.04919434,-0.8978271,-0.3029785,0,0,0,0,0,0
1.376665,1,0.6302155,-0.3343555,0.1593657,0,0,0,0,0,0,0,0,0,0,0,1,0,0,0,0,0,0.02832031,-0.9025879,-0.2446289,0,0,0,0,0,0
1.379999,1,0.6302155,-0.01158581,0.008777132,0,0,0,0,0,0,0,0,0,0,0,0,0,0,0,0,0,0.01281738,-0.9157715,-0.2521973,0,0,0,0,0,0
1.383332,1,0.6302155,0,0,0,0,0,0,0,0,0,0,0,0,0,0,0,0,0,0,0,-0.0579834,-0.9626465,-0.1590576,0,0,0,0,0,0
1.386665,1,0.6302155,0,0,0,0,0,0,0,0,0,0,0,0,0,0,0,0,0,0,0,-0.004638672,-0.9754639,-0.1989746,0,0,0,0,0,0
1.389999,1,0.6302155,0,0,0,0,0,0,0,0,0,0,0,0,0,0,0,0,0,0,0,0.001708984,-0.9853516,-0.2199707,0,0,0,0,0,0
1.393332,1,0.6302155,0,0,0,0,0,0,0,0,0,0,0,0,0,0,0,0,0,0,0,-0.004760742,-0.9912109,-0.2264404,0,0,0,0,0,0
1.396665,1,0.6302155,0,0,0,0,0,0,0,0,0,0,0,0,0,0,0,0,0.1022198,0.0209938,0.006498083,-0.01208496,-1.014648,-0.2232666,0,0,0,0,0,0
1.399999,1,0.6302155,0,0,0,0,0,0,0,0,0,0,0,0,0,0,0,0,0.09871283,0.01874294,0.01199548,-0.0177002,-1.047607,-0.2296143,0,0,0,0,0,0
1.403332,1,0.6302155,0,0,0,0,0,0,0,0,0,0,0,0,0,0,0,0,0,0,0,-0.0177002,-1.047607,-0.2296143,0,0,0,0,0,0
1.406665,1,0.6302155,0,0,0,0,0,0,0,0,0,0,0,0,0,0,0,0,0,0,0,-0.01367188,-1.112061,-0.2097168,0,0,0,0,0,0
1.409999,1,0.6302155,0,0,0,0,0,0,0,0,0,0,0,0,0,0,0,0,0,0,0,-0.01806641,-1.149536,-0.2114258,0,0,0,0,0,0
1.413332,1,0.6302155,0,0,0,0,0,0,0,0,0,0,0,0,0,0,0,0,0,0,0,-0.02709961,-1.143555,-0.1734619,0,0,0,0,0,0
1.416665,1,0.6302155,0,0,0,0,0,0,0,0,0,0,0,0,0,0,0,0,0,0,0,-0.02246094,-1.053833,-0.1520996,0,0,0,0,0,0
1.419999,1,0.6302155,0,0,0,0,0,0,0,0,0,0,0,0,0,0,0,0,0,0,0,-0.02307129,-1.012085,-0.1599121,0,0,0,0,0,0
1.423332,1,0.6302155,0,0,0,0,0,0,0,0,0,0,0,0,0,0,0,0,0,0,0,-0.04309082,-1.007935,-0.1427002,0,0,0,0,0,0
1.426665,1,0.6302155,0,0,0,0,0,0,0,0,0,0,0,0,0,0,0,0,0,0,0,-0.05432129,-0.9404297,-0.1450195,0,0,0,0,0,0
1.429999,1,0.6302155,0,0,0,0,0,0,0,0,0,0,0,0,0,0,0,0,0.01749341,0.0167437,-0.02723974,-0.001831055,-0.8106689,-0.1851807,0,0,0,0,0,0
1.433332,1,0.6302155,0,0,0,0,0,0,0,0,0,0,0,0,0,0,0,0,0.01949266,0.01174558,-0.04748212,0.05358887,-0.9185791,-0.1959229,0,0,0,0,0,0
1.436665,1,0.6302155,0,0,0,0,0,0,0,0,1,0,0,0,0,0,0,0,0,0,0,0.02075195,-1.115967,-0.1193848,0,0,0,0,0,0
1.439999,1,0.6302155,0,0,0,0,0,0,0,0,1,0,0,0,0,0,0,0,0,0,0,0.05712891,-0.7474365,-0.2056885,0,0,0,0,0,0
1.443332,1,0.6302155,0,0,0,0,0,0,0,0,1,0,0,0,0,0,0,0,0.004383292,0.01038148,-0.07336247,0.1082764,-0.967041,-0.211792,0,0,0,0,0,0
1.446665,1,0.6302155,0,0,0,0,0,0,0,0,1,0,0,0,0,0,0,0,0.01074595,0.00674746,-0.07547158,0.09558105,-0.9957275,-0.2419434,0,0,0,0,0,0
1.449999,1,0.6302155,0,0,0,0,0,0,0,0,1,0,0,0,0,0,0,0,0.01124577,0.003998494,-0.06922394,0.05273438,-1.045654,-0.2467041,0,0,0,0,0,0
1.453332,1,0.6302155,0,0,0,0,0,0,0,0,1,0,0,0,0,0,0,0,0.009227169,0.0004613585,-0.05374826,0.04321289,-1.096802,-0.2468262,0,0,0,0,0,0
1.456665,1,0.6302155,0,0,0,0,0,0,0,0,1,0,0,0,0,0,0,0,0,0,0,0.04321289,-1.096802,-0.2468262,0,0,0,0,0,0
1.459999,0.9906307,0.6296722,0,0,0,0,0,0,0,0,1,0,0,0,0,0,0,0,0,0,0,0.06262207,-1.09436,-0.2318115,0,0,0,0,0,0
1.463332,1,0.6302155,0,0,0,0,0,0,0,0,1,0,0,0,0,0,0,0,0,0,0,0.06066895,-1.064453,-0.1922607,0,0,0,0,0,0
1.466665,0.9906307,0.6296722,0,0,0,0,0,0,0,0,1,0,0,0,0,0,0,0,0,0,0,0.04248047,-1.033203,-0.142334,0,0,0,0,0,0
1.469999,1,0.6302155,0,0,0,0,0,0,0,0,1,0,0,0,0,0,0,0,0,0,0,0.02758789,-1.016602,-0.1141357,0,0,0,0,0,0
1.473332,0.9906307,0.6296722,0,0,0,0,0,0,0,0,1,0,0,0,0,0,0,0,0,0,0,0.01464844,-1.030518,-0.1317139,0,0,0,0,0,0
1.476665,0.9906307,0.6296722,0,0,0,0,0,0,0,0,1,0,0,0,0,0,0,0,0,0,0,0.002075195,-1.029541,-0.1616211,0,0,0,0,0,0
1.479999,0.9906307,0.6296722,0,0,0,0,0,0,0,0,1,0,0,0,0,0,0,0,0,0,0,0.01416016,-1.015625,-0.1744385,0,0,0,0,0,0
1.483332,0.9906307,0.6296722,0,0,0,0,0,0,0,0,1,0,0,0,0,0,0,0,0,0,0,0.03063965,-0.9986572,-0.1806641,0,0,0,0,0,0
1.486665,0.9906307,0.6296722,0,0,0,0,0,0,0,0,1,0,0,0,0,0,0,0,0,0,0,0.03942871,-0.9868164,-0.2004395,0,0,0,0,0,0
1.489999,0.9817535,0.6291237,0,0,0,0,0,0,0,0,1,0,0,0,0,1,0,0,0,0,0,0.02282715,-0.9786377,-0.2197266,0,0,0,0,0,0
1.493332,0.9817535,0.6291237,0,0,0,0,0,0,0,0,1,0,0,0,0,1,0,0,0,0,0,0.01550293,-0.9637451,-0.2363281,0,0,0,0,0,0
1.496665,0.9817535,0.6291237,0,0,0,0,0,0,0,0,1,0,0,0,0,1,0,0,0.004382906,-0.01568619,0.01730094,0.01159668,-0.9644775,-0.2315674,0,0,0,0,0,0
1.499999,0.9817535,0.6291237,0,0,0,0,0,0,0,0,1,0,0,0,0,0,0,0,0.009996235,-0.01874294,0.01899285,0.0144043,-0.9608154,-0.2397461,0,0,0,0,0,0
1.503332,0.9734389,0.6369415,0,0,0,0,0,0,0,0,1,0,0,0,0,0,0,0,0.01424464,-0.0209921,0.01924275,0.02624512,-0.9707031,-0.2349854,0,0,0,0,0,0
1.506665,0.9734389,0.6369415,0,0,0,0,0,0,0,0,1,0,0,0,0,0,0,0,0.01849454,-0.02199351,0.01874447,0.02844238,-0.9714355,-0.2314453,0,0,0,0,0,0
1.509999,0.9734389,0.6369415,0,0,0,0,0,0,0,0,1,0,0,0,0,0,0,0,0,0,0,0.02844238,-0.9714355,-0.2314453,0,0,0,0,0,0
1.513332,0.9734389,0.6369415,0,0,0,0,0,0,0,0,1,0,0,0,0,0,0,0,0,0,0,0.02966309,-0.9561768,-0.2457275,0,0,0,0,0,0
1.516665,0.9645792,0.6363822,0,0,0,0,0,0,0,0,1,0,0,0,0,0,0,0,0,0,0,0.02392578,-0.9696045,-0.2629395,0,0,0,0,0,0
1.519999,0.9651414,0.6447625,0,0,0,0,0,0,0,0,1,0,0,0,0,0,0,0,0,0,0,0.04882813,-1.008179,-0.2486572,0,0,0,0,0,0
1.523332,0.9651414,0.6447625,0,0,0,0,0,0,0,0,1,0,0,0,0,0,0,0,0,0,0,0.05957031,-1.042358,-0.2028809,0,0,0,0,0,0
1.526665,0.956861,0.6525872,0,0,0,0,0,0,0,0,1,0,0,0,0,0,0,0,0,0,0,0.0723877,-1.042725,-0.1848145,0,0,0,0,0,0
1.529999,0.956861,0.6525872,0,0,0,0,0,0,0,0,1,0,0,0,0,0,0,0,0,0,0,0.01135254,-1.126953,-0.2012939,0,0,0,0,0,0
1.533332,0.9485974,0.6604159,0,0,0,0,0,0,0,0,1,0,0,0,0,0,0,0,0,0,0,-0.03942871,-1.06543,-0.1585693,0,0,0,0,0,0
1.536665,0.9485974,0.6604159,0,0,0,0,0,0,0,0,1,0,0,0,0,0,0,0,0,0,0,-0.0859375,-1.061646,-0.1010742,0,0,0,0,0,0
1.539999,0.9491705,0.6688248,0,0,0,0,0,0,0,0,1,0,0,0,0,0,0,0,0,0,0,-0.08691406,-1.038574,-0.09191895,0,0,0,0,0,0
1.543332,0.9403506,0.6682492,0,0,0,0,0,0,0,0,1,0,0,0,0,0,0,0,0,0,0,-0.07910156,-1.006104,-0.1300049,0,0,0,0,0,0
1.546665,0.9409287,0.6766679,0,0,0,0,0,0,0,0,1,0,0,0,0,0,0,0,0,0,0,-0.04833984,-1.008423,-0.147583,0,0,0,0,0,0
1.549999,0.9409287,0.6766679,0,0,0,0,0,0,0,0,1,0,0,0,0,0,0,0,0,0,0,-0.03222656,-1.037354,-0.1530762,0,0,0,0,0,0
1.553332,0.9409287,0.6766679,0,0,0,0,0,0,0,0,1,0,0,0,0,0,0,0,0,0,0,-0.01916504,-1.018066,-0.1860352,0,0,0,0,0,0
1.556665,0.9415066,0.6850963,0,0,0,0,0,0,0,0,0,0,0,0,0,0,0,0,0,0,0,-0.01403809,-0.9915771,-0.2061768,0,0,0,0,0,0
1.559999,0.9415066,0.6850963,0,0,0,0,0,0,0,0,0,0,0,0,0,0,0,0,-0.004248401,0.03298758,-0.01149567,-0.01086426,-0.9373779,-0.1958008,0,0,0,0,0,0
1.563332,0.9327032,0.6845161,0,0,0,0,0,0,0,0,0,0,0,0,0,0,0,0,0,0,0,-0.01806641,-1.01001,-0.1903076,0,0,0,0,0,0
1.566665,0.9332856,0.6929545,0,0,0,0,0,0,0,0,0,0,0,0,0,0,0,0,0,0,0,-0.00402832,-1.073242,-0.2277832,0,0,0,0,0,0
1.569999,0.9332856,0.6929545,0,0,0,0,0,0,0,0,0,0,0,0,0,0,0,0,-0.01024698,0.03099086,-0.01224639,-0.02539063,-1.083252,-0.1951904,0,0,0,0,0,0
1.573332,0.9332856,0.6929545,0,0,0,0,0,0,0,0,0,0,0,0,0,0,0,0,-0.01599398,0.03248777,-0.008996612,-0.02709961,-1.068848,-0.1522217,0,0,0,0,0,0
1.576665,0.9332856,0.6929545,0,0,0,0,0,0,0,0,0,0,0,0,0,0,0,0,-0.02199172,0.03423711,-0.005747836,-0.02026367,-1.05835,-0.1446533,0,0,0,0,0,0
1.579999,0.9332856,0.6929545,0,0,0,0,0,0,0,0,0,0,0,0,0,0,0,0,-0.02449078,0.03523673,-0.003248777,-0.01660156,-1.046997,-0.1549072,0,0,0,0,0,0
1.583332,0.9332856,0.6929545,0,0,0,0,0,0,0,0,0,0,0,0,0,0,0,0,0,0,0,-0.01660156,-1.046997,-0.1549072,0,0,0,0,0,0
1.586665,0.9332856,0.6929545,0,0,0,0,0,0,0,0,0,0,0,0,0,0,0,0,0,0,0,-0.01403809,-1.030151,-0.1505127,0,0,0,0,0,0
1.589999,0.9250807,0.7008187,0,0,0,0,0,0,0,0,0,0,0,0,0,0,0,0,0,0,0,-0.0111084,-0.9929199,-0.1499023,0,0,0,0,0,0
1.593332,0.9250807,0.7008187,0,0,0,0,0,0,0,0,0,0,0,0,0,0,0,0,0,0,0,-0.0001220703,-0.9619141,-0.1549072,0,0,0,0,0,0
1.596665,0.9250807,0.7008187,0,0,0,0,0,0,0,0,0,0,0,0,0,0,0,0,0,0,0,0.002197266,-1.00647,-0.05212402,0,0,0,0,0,0
1.599999,0.9250807,0.7008187,0,0,0,0,0,0,0,0,0,0,0,0,0,0,0,0,0,0,0,-0.03405762,-1.167603,0.005615234,0,0,0,0,0,0
1.603332,0.9168916,0.7086892,0,0,0,0,0,0,0,0,0,0,0,0,0,0,0,0,0,0,0,-0.163208,-1.16272,-0.01379395,0,0,0,0,0,0
1.606665,0.9168916,0.7086892,0,0,0,0,0,0,0,0,0,0,0,0,0,0,0,0,0,0,0,-0.135498,-1.192261,-0.0222168,0,0,0,0,0,0
1.609999,0.9174812,0.7171578,0,0,0,0,0,0,0,0,0,0,0,0,0,1,0,0,0,0,0,-0.08508301,-1.150269,-0.06530762,0,0,0,0,0,0
1.613332,0.9087183,0.7165664,0,0,0,0,0,0,0,0,0,0,0,0,0,1,0,0,0,0,0,-0.07397461,-1.113647,-0.1044922,0,0,0,0,0,0
1.616665,0.9093114,0.7250457,0,0,0,0,0,0,0,0,0,0,0,0,0,1,0,0,0,0,0,-0.05773926,-1.074951,-0.1118164,0,0,0,0,0,0
1.619999,0.9005606,0.7244509,0,0,0,0,0,0,0,0,0,0,0,0,0,1,0,0,0,0,0,-0.09777832,-0.9598389,0.004272461,0,0,0,0,0,0
1.623332,0.9005606,0.7244509,0,0,0,0,0,0,0,0,0,0,0,0,0,1,0,0,0,0,0,-0.1911621,-0.9483643,-0.04492188,0,0,0,0,0,0
1.626665,0.9011568,0.7329409,0,0,0,0,0,0,0,0,0,0,0,0,0,1,0,0,0,0,0,-0.1879883,-0.9023438,-0.09289551,0,0,0,0,0,0
1.629999,0.9011568,0.7329409,0,0,0,0,0,0,0,0,0,0,0,0,0,1,0,0,0,0,0,-0.1289063,-0.9727783,-0.007080078,0,0,0,0,0,0
1.633332,0.892418,0.7323431,0,0,0,0,0,0,0,0,0,0,0,0,0,1,0,0,0,0,0,-0.0456543,-0.9630127,-0.08850098,0,0,0,0,0,0
1.636665,0.892418,0.7323431,0,0,0,0,0,0,0,0,0,0,0,0,0,1,0,0,-0.1317004,0.09396462,-0.02224163,0.04052734,-0.9418945,-0.2701416,0,0,0,0,0,0
1.639999,0.892418,0.7323431,0,0,0,0,0,0,0,0,0,0,0,0,0,1,0,0,-0.1307008,0.07547158,-0.02823937,0.1135254,-0.9224854,-0.3997803,0,0,0,0,0,0
1.643332,0.892418,0.7323431,0,0,0,0,0,0,0,0,0,0,0,0,0,1,0,0,0,0,0,0.1135254,-0.9224854,-0.3997803,0,0,0,0,0,0
1.646665,0.8930173,0.740844,0,0,0,0,0,0,0,0,0,0,0,0,0,1,0,0,-0.1162062,0.03073842,-0.04148438,0.1932373,-0.8703613,-0.5019531,0,0,0,0,0,0
1.649999,0.8930173,0.740844,0,0,0,0,0,0,0,0,0,0,0,0,0,1,0,0,0,0,0,0.1932373,-0.8703613,-0.5019531,0,0,0,0,0,0
1.653332,0.8930173,0.740844,0,0,0,0,0,0,0,0,0,0,0,0,0,1,0,0,0,0,0,0.2113037,-0.8687744,-0.5015869,0,0,0,0,0,0
1.656665,0.8930173,0.740844,-0.03222121,-0.003580134,0,0,0,0,0,0,0,0,0,0,0,1,0,0,0,0,0,0.1856689,-0.8894043,-0.4312744,0,0,0,0,0,0
1.659999,0.8930173,0.740844,-0.06957007,-0.009188499,0,0,0,0,0,0,0,0,0,0,0,1,0,0,0,0,0,0.1339111,-0.9069824,-0.3464355,0,0,0,0,0,0
1.663332,0.8930173,0.740844,-0.08866467,-0.01399968,0,0,0,0,0,0,0,0,0,0,0,1,0,0,0,0,0,0.09313965,-0.9355469,-0.2871094,0,0,0,0,0,0
1.666665,0.8930173,0.740844,-0.1077607,-0.01943227,0,0,0,0,0,0,0,0,0,0,0,1,0,0,0,0,0,0.0748291,-0.946167,-0.2677002,0,0,0,0,0,0
1.669999,0.8930173,0.740844,-0.126841,-0.02536821,0,0,0,0,0,0,0,0,0,0,0,1,0,0,0,0,0,0.06140137,-0.9445801,-0.2463379,0,0,0,0,0,0
1.673332,0.8930173,0.740844,-0.1279333,-0.02952306,0,0,0,0,0,0,0,0,0,0,0,1,0,0,0,0,0,0.05029297,-0.9448242,-0.2261963,0,0,0,0,0,0
1.676665,0.8930173,0.740844,-0.1291566,-0.03377942,0,0,0,0,0,0,0,0,0,0,0,1,0,0,0,0,0,0.04821777,-0.9344482,-0.2322998,0,0,0,0,0,0
1.679999,0.8930173,0.740844,-0.1305021,-0.03814678,0,0,0,0,0,0,0,0,0,0,0,1,0,0,-0.03273767,-0.005248024,0.01149567,0.06689453,-0.9245605,-0.2612305,0,0,0,0,0,0
1.683332,0.8930173,0.740844,-0.1232427,-0.04108091,0,0,0,0,0,0,0,0,0,0,0,1,0,0,-0.02873918,-0.005747836,0.01549417,0.08691406,-0.9060059,-0.2923584,0,0,0,0,0,0
1.686665,0.8930173,0.740844,-0.09738582,-0.03587899,0,0,0,0,0,0,0,0,0,0,0,1,0,0,-0.02099181,-0.00599766,0.01614755,0.09606934,-0.8908691,-0.2957764,0,0,0,0,0,0
1.689999,0.8930173,0.740844,-0.09738582,-0.03587899,0,0,0,0,0,0,0,0,0,0,0,1,0,0,0,0,0,0.09606934,-0.8908691,-0.2957764,0,0,0,0,0,0
1.693332,0.8930173,0.740844,-0.06386483,-0.02737064,0,0,0,0,0,0,0,0,0,0,0,1,0,0,0,0,0,0.09375,-0.8845215,-0.2832031,0,0,0,0,0,0
1.696665,0.8930173,0.740844,-0.02455354,-0.01322114,0,0,0,0,0,0,0,0,0,0,0,1,0,0,0,0,0,0.07849121,-0.9003906,-0.2698975,0,0,0,0,0,0
1.699998,0.8930173,0.740844,0,0,0,0,0,0,0,0,0,0,0,0,0,1,0,0,0,0,0,0.05517578,-0.9082031,-0.2507324,0,0,0,0,0,0
1.703332,0.8930173,0.740844,0,0,0,0,0,0,0,0,0,0,0,0,0,1,0,0,0,0,0,0.02709961,-0.9141846,-0.2319336,0,0,0,0,0,0
1.706665,0.8930173,0.740844,0,0,0,0,0,0,0,0,0,0,0,0,0,1,0,0,0,0,0,-0.01281738,-0.8806152,-0.2351074,0,0,0,0,0,0
1.709998,0.8930173,0.740844,0,0,0,0,0,0,0,0,0,0,0,0,0,1,0,0,0,0,0,-0.007324219,-0.9122314,-0.2061768,0,0,0,0,0,0
1.713332,0.8930173,0.740844,0,0,0,0,0,0,0,0,0,0,0,0,0,1,0,0,0,0,0,0.03479004,-0.9405518,-0.203125,0,0,0,0,0,0
1.716665,0.8930173,0.740844,0,0,0,0,0,0,0,0,0,0,0,0,0,1,0,0,0,0,0,0.04650879,-0.9522705,-0.2072754,0,0,0,0,0,0
1.719998,0.8930173,0.740844,0,0,0,0,0,0,0,0,0,0,0,0,0,1,0,0,0,0,0,0.02099609,-0.9630127,-0.2202148,0,0,0,0,0,0
1.723332,0.8930173,0.740844,0,0,0,0,0,0,0,0,0,0,0,0,0,1,0,0,0,0,0,0.01159668,-0.9678955,-0.2346191,0,0,0,0,0,0
1.726665,0.8930173,0.740844,0,0,0,0,0,0,0,0,0,0,0,0,0,1,0,0,0.01914638,0.01384075,0.01084192,0.0168457,-0.9837646,-0.2460938,0,0,0,0,0,0
1.729998,0.8930173,0.740844,0,0,0,0,0,0,0,0,0,0,0,0,0,1,0,0,0.02449078,0.01449454,0.01499435,0.02307129,-0.9952393,-0.2469482,0,0,0,0,0,0
1.733332,0.8930173,0.740844,0,0,0,0,0,0,0,0,0,0,0,0,0,1,0,0,0.02624012,0.01449454,0.0167437,0.02197266,-1.009399,-0.2388916,0,0,0,0,0,0
1.736665,0.8930173,0.740844,0,0,0,0,0,0,0,0,0,0,0,0,0,1,0,0,0.02375996,0.01291804,0.01730094,0.01538086,-1.014282,-0.2330322,0,0,0,0,0,0
1.739998,0.8930173,0.740844,0,0,0,0,0,0,0,0,0,0,0,0,0,1,0,0,0.02549248,0.01449572,0.02024403,0.005249023,-1.035278,-0.2301025,0,0,0,0,0,0
1.743332,0.8930173,0.740844,0.04769778,0.02225896,0,0,0,0,0,0,0,0,0,0,0,1,0,0,0.02074219,0.01524426,0.02074219,-0.002685547,-1.051025,-0.2213135,0,0,0,0,0,0
1.746665,0.8930173,0.740844,0.1034926,0.04902282,0,0,0,0,0,0,0,0,0,0,0,1,0,0,0.01384075,0.01499415,0.01937706,-0.01184082,-1.05896,-0.2094727,0,0,0,0,0,0
1.749998,0.8930173,0.740844,0.1526974,0.07976729,0,0,0,0,0,0,0,0,0,0,0,1,0,0,0.007996988,0.0167437,0.0209921,-0.01025391,-1.061646,-0.2088623,0,0,0,0,0,0
1.753332,0.8930173,0.740844,0.309712,0.1625222,0,0,0,0,0,0,0,0,0,0,0,1,0,0,-0.01349492,0.01324501,0.01424464,-0.00793457,-1.046509,-0.2226563,0,0,0,0,0,0
1.756665,0.8930173,0.740844,0.3367061,0.1730732,0,0,0,0,0,0,0,0,0,0,0,1,0,0,-0.01849304,0.01299511,0.01074595,0.004150391,-1.035645,-0.2226563,0,0,0,0,0,0
1.759998,0.8930173,0.740844,0.3637777,0.1834985,0,0,0,0,0,0,0,0,0,0,0,1,0,0,-0.01961119,0.011536,0.006460158,0.006103516,-1.029175,-0.2254639,0,0,0,0,0,0
1.763332,0.8930173,0.740844,0.3637777,0.1834985,0,0,0,0,0,0,0,0,0,0,0,1,0,0,0,0,0,0.006103516,-1.029175,-0.2254639,0,0,0,0,0,0
1.766665,0.8930173,0.740844,0.3811471,0.1856871,0,0,0,0,0,0,0,0,0,0,0,1,0,0,0,0,0,-0.005004883,-1.015747,-0.2305908,0,0,0,0,0,0
1.769998,0.8930173,0.740844,0.4073604,0.1887768,0,0,0,0,0,0,0,0,0,0,0,1,0,0,0,0,0,-0.01660156,-1.00354,-0.2335205,0,0,0,0,0,0
1.773332,0.8930173,0.740844,0.4249301,0.1907167,0,0,0,0,0,0,0,0,0,0,0,1,0,0,0,0,0,-0.01708984,-0.9904785,-0.2463379,0,0,0,0,0,0
1.776665,0.8930173,0.740844,0.4328238,0.1845373,0,0,0,0,0,0,0,0,0,0,0,1,0,0,0,0,0,-0.01025391,-0.9836426,-0.2575684,0,0,0,0,0,0
1.779998,0.8930173,0.740844,0.4488384,0.1721109,0,0,0,0,0,0,0,0,0,0,0,1,0,0,0,0,0,-0.007202148,-0.9844971,-0.2592773,0,0,0,0,0,0
1.783332,0.8930173,0.740844,0.4561781,0.1588176,0,0,0,0,0,0,0,0,0,0,0,1,0,0,0,0,0,-0.005493164,-0.9801025,-0.2507324,0,0,0,0,0,0
1.786665,0.8930173,0.740844,0.4630025,0.1385628,0,0,0,0,0,0,0,0,0,0,0,1,0,0,0,0,0,-0.001464844,-0.9820557,-0.2442627,0,0,0,0,0,0
1.789998,0.8930173,0.740844,0.4701629,0.1183863,0,0,0,0,0,0,0,0,0,0,0,1,0,0,0,0,0,-0.002929688,-0.9819336,-0.2478027,0,0,0,0,0,0
1.793332,0.8930173,0.740844,0.468541,0.09775314,0,0,0,0,0,0,0,0,0,0,0,1,0,0,0,0,0,-0.002685547,-0.980835,-0.2512207,0,0,0,0,0,0
1.796665,0.8930173,0.740844,0.4763504,0.07770255,0,0,0,0,0,0,0,0,0,0,0,1,0,0,0,0,0,-0.006103516,-0.9763184,-0.2498779,0,0,0,0,0,0
1.799998,0.8930173,0.740844,0.4753173,0.05730776,0,0,0,0,0,0,0,0,0,0,0,1,0,0,0,0,0,-0.00390625,-0.9696045,-0.2473145,0,0,0,0,0,0
1.803332,0.8930173,0.740844,0.4745831,0.03702421,0,0,0,0,0,0,0,0,0,0,0,1,0,0,-0.002998871,-0.001249529,-0.01174558,0.002319336,-0.9616699,-0.2453613,0,0,0,0,0,0
1.806665,0.8930173,0.740844,0.4833834,0.01690152,0,0,0,0,0,0,0,0,0,0,0,1,0,0,0.001499435,-0.001499435,-0.01199548,0.007446289,-0.9569092,-0.2486572,0,0,0,0,0,0
1.809998,0.8848926,0.7487553,0.48328,-0.00337958,0,0,0,0,0,0,0,0,0,0,0,1,0,0,0.005305622,-0.001384075,-0.01061124,0.01464844,-0.9584961,-0.2492676,0,0,0,0,0,0
1.813332,0.8848926,0.7487553,0.48328,-0.00337958,0,0,0,0,0,0,0,0,0,0,0,1,0,0,0,0,0,0.01464844,-0.9584961,-0.2492676,0,0,0,0,0,0
1.816665,0.8767824,0.7566752,0.4834867,-0.02366718,0,0,0,0,0,0,0,0,0,0,0,1,0,0,0,0,0,0.02331543,-0.9631348,-0.2449951,0,0,0,0,0,0
1.819998,0.8686867,0.7646044,0.4837955,-0.03721504,0,0,0,0,0,0,0,0,0,0,0,1,0,0,0,0,0,0.03442383,-0.9752197,-0.244873,0,0,0,0,0,0
1.823332,0.8606049,0.772543,0.4845096,-0.05759905,0,0,0,0,0,0,0,0,0,0,0,1,0,0,0,0,0,0.03552246,-0.9875488,-0.2384033,0,0,0,0,0,0
1.826665,0.8525369,0.7804915,0.4851483,-0.07124556,0,0,0,0,0,0,0,0,0,0,0,1,0,0,0,0,0,0.03649902,-0.9909668,-0.2342529,0,0,0,0,0,0
1.829998,0.8444824,0.7884504,0.4863396,-0.09182634,0,0,0,0,0,0,0,0,0,0,0,1,0,0,0,0,0,0.02954102,-0.9985352,-0.222168,0,0,0,0,0,0
1.833332,0.8277996,0.7958074,0.4781649,-0.1051285,0,0,0,0,0,0,0,0,0,0,0,1,0,0,0,0,0,0.02929688,-1.001465,-0.2103271,0,0,0,0,0,0
1.836665,0.8117793,0.8117793,0.4695937,-0.1114863,0,0,0,0,0,0,0,0,0,0,0,1,0,0,0,0,0,0.03479004,-1.006226,-0.2022705,0,0,0,0,0,0
1.839998,0.8037875,0.8197833,0.4520144,-0.1171889,0,0,0,0,0,0,0,0,0,0,0,1,0,0,0,0,0,0.0411377,-1.007813,-0.2015381,0,0,0,0,0,0
1.843332,0.7878387,0.8358289,0.4352486,-0.1295778,0,0,0,0,0,0,0,0,0,0,0,1,0,0,0,0,0,0.04272461,-1.017212,-0.2001953,0,0,0,0,0,0
1.846665,0.772543,0.8606049,0.4179924,-0.1349424,0,0,0,0,0,0,0,0,0,0,0,1,0,0,0,0,0,0.04821777,-1.025269,-0.2011719,0,0,0,0,0,0
1.849998,0.7566752,0.8767824,0.391964,-0.139293,0,0,0,0,0,0,0,0,0,0,0,1,0,0,-0.008304453,-0.005766981,0.01753162,0.04516602,-1.033447,-0.2097168,0,0,0,0,0,0
1.853332,0.7402433,0.8842907,0.3662282,-0.1433067,0,0,0,0,0,0,0,0,0,0,0,1,0,0,-0.01599528,-0.005748304,0.02124373,0.04406738,-1.036133,-0.2182617,0,0,0,0,0,0
1.856665,0.7238518,0.8918174,0.3408357,-0.1469658,0,0,0,0,0,0,0,0,0,0,0,1,0,0,-0.02224163,-0.00549793,0.02199172,0.03869629,-1.033813,-0.2283936,0,0,0,0,0,0
1.859998,0.7238518,0.8918174,0.3408357,-0.1469658,0,0,0,0,0,0,0,0,0,0,0,1,0,0,0,0,0,0.03869629,-1.033813,-0.2283936,0,0,0,0,0,0
1.863332,0.7002302,0.9163012,0.3158449,-0.1502563,0,0,0,0,0,0,0,0,0,0,0,1,0,0,0,0,0,0.03198242,-1.031006,-0.2342529,0,0,0,0,0,0
1.866665,0.6845161,0.9327032,0.2814558,-0.145172,0,0,0,0,0,0,0,0,0,0,0,1,0,0,0,0,0,0.01989746,-1.023193,-0.2354736,0,0,0,0,0,0
1.869998,0.6598403,0.9397725,0.2476239,-0.1394663,0,0,0,0,0,0,0,0,0,0,0,1,0,0,0,0,0,0.0123291,-1.017822,-0.2324219,0,0,0,0,0,0
1.873332,0.6358177,0.9557259,0.2063666,-0.1313242,0,0,0,0,0,0,0,0,0,0,0,1,0,0,0,0,0,0.003540039,-1.003784,-0.2198486,0,0,0,0,0,0
1.876665,0.6118565,0.9717721,0.1744578,-0.1238903,0,0,0,0,0,0,0,0,0,0,0,1,0,0,0,0,0,-0.0001220703,-0.9996338,-0.2130127,0,0,0,0,0,0
1.879998,0.579634,0.9873765,0.1364461,-0.1133197,0,0,0,0,0,0,0,0,0,0,0,1,0,0,0,0,0,0.009277344,-0.9904785,-0.2210693,0,0,0,0,0,0
1.883332,0.547518,1,0.1012833,-0.1012833,0,0,0,0,0,0,0,0,0,0,0,1,0,0,0,0,0,0.01489258,-0.989502,-0.223999,0,0,0,0,0,0
1.886665,0.5149953,1,0.07030685,-0.07716605,0,0,0,0,0,0,0,0,0,0,0,1,0,0,0,0,0,0.006103516,-0.9858398,-0.2270508,0,0,0,0,0,0
1.889998,0.4825947,1,0.03118804,-0.03307822,0,0,0,0,0,0,0,0,0,0,0,1,0,0,0,0,0,-0.0007324219,-0.980835,-0.2388916,0,0,0,0,0,0
1.893332,0.4498426,1,0,0,0,0,0,0,0,0,0,0,0,0,0,1,0,0,0,0,0,-0.01403809,-0.9694824,-0.2519531,0,0,0,0,0,0
1.896665,0.4253754,1,0,0,0,0,0,0,0,0,0,0,0,0,0,1,0,0,0,0,0,-0.02294922,-0.9559326,-0.2613525,0,0,0,0,0,0
1.899998,0.4009901,1,0,0,0,0,0,0,0,0,0,0,0,0,0,1,0,0,-0.0549793,-0.004748212,-0.001249529,-0.02160645,-0.9538574,-0.2724609,0,0,0,0,0,0
1.903332,0.3766855,1,0,0,0,0,0,0,0,0,0,0,0,0,0,1,0,0,-0.04590517,-0.005766981,0,-0.005371094,-0.9708252,-0.2822266,0,0,0,0,0,0
1.906665,0.3444016,1,0,0,0,0,0,0,0,0,0,0,0,0,0,1,0,0,-0.04723221,-0.007747083,0.002748965,-0.01208496,-0.9770508,-0.2745361,0,0,0,0,0,0
1.909998,0.3444016,1,0,0,0,0,0,0,0,0,0,0,0,0,0,1,0,0,0,0,0,-0.01208496,-0.9770508,-0.2745361,0,0,0,0,0,0
1.913332,0.3202776,1,0,0,0,0,0,0,0,0,0,0,0,0,0,1,0,0,0,0,0,-0.02282715,-0.9957275,-0.2709961,0,0,0,0,0,0
1.916665,0.2962267,1,0,0,0,0,0,0,0,0,0,0,0,0,0,1,0,0,0,0,0,-0.02600098,-1.001709,-0.2774658,0,0,0,0,0,0
1.919998,0.2722459,1,0,0,0,0,0,0,0,0,0,0,0,0,0,1,0,0,0,0,0,-0.02148438,-0.9945068,-0.2757568,0,0,0,0,0,0
1.923332,0.2483314,1,0,0,0,0,0,0,0,0,0,0,0,0,0,1,0,0,0,0,0,-0.01916504,-0.9838867,-0.2596436,0,0,0,0,0,0
1.926665,0.2244794,1,0,0,0,0,0,0,0,0,0,0,0,0,0,1,0,0,0,0,0,-0.008911133,-0.9846191,-0.2412109,0,0,0,0,0,0
1.929998,0.2006854,1,0,0,0,0,0,0,0,0,0,0,0,0,0,1,0,0,0,0,0,-0.02685547,-0.9890137,-0.2077637,0,0,0,0,0,0
1.933332,0.1848525,1,-0.001330675,0.002739625,0,0,0,0,0,0,0,0,0,0,0,1,0,0,0,0,0,-0.02819824,-0.9816895,-0.2041016,0,0,0,0,0,0
1.936665,0.1532514,1,-0.03586131,0.08263692,0,0,0,0,0,0,0,0,0,0,0,1,0,0,0,0,0,-0.02111816,-0.9625244,-0.2130127,0,0,0,0,0,0
1.939998,0.1374799,1,-0.06864269,0.1727902,0,0,0,0,0,0,0,0,0,0,0,1,0,0,0,0,0,-0.01794434,-0.9547119,-0.2259521,0,0,0,0,0,0
1.943332,0.1217254,1,-0.1015812,0.2815249,0,0,0,0,0,0,0,0,0,0,0,1,0,0,0,0,0,-0.01489258,-0.956665,-0.2407227,0,0,0,0,0,0
1.946665,0.113854,1,-0.1265936,0.3992569,0,0,0,0,0,0,0,0,0,0,0,1,0,0,-0.07722092,-0.00674746,-0.004998118,-0.02270508,-0.956543,-0.2525635,0,0,0,0,0,0
1.949998,0.09812176,1,-0.1434802,0.5354259,0,0,0,0,0,0,0,0,0,0,0,1,0,0,-0.07847045,-0.009996235,-0.01099586,-0.03967285,-0.9525146,-0.2580566,0,0,0,0,0,0
1.953332,0.09812176,1,-0.1580189,0.6724989,0,0,0,0,0,0,0,0,0,0,0,1,0,0,-0.07151057,-0.01084192,-0.01637823,-0.04760742,-0.9379883,-0.2687988,0,0,0,0,0,0
1.956665,0.09812176,1,-0.1580189,0.6724989,0,0,0,0,0,0,0,0,0,0,0,1,0,0,0,0,0,-0.04760742,-0.9379883,-0.2687988,0,0,0,0,0,0
1.959998,0.08240198,1,-0.1833286,0.9478477,0,0,0,0,0,0,0,0,0,0,0,1,0,0,-0.06797441,-0.01749341,-0.03773579,-0.0559082,-0.9168701,-0.2839355,0,0,0,0,0,0
1.963332,0.08240198,1,-0.1833286,0.9478477,0,0,0,0,0,0,0,0,0,0,0,1,0,0,0,0,0,-0.0559082,-0.9168701,-0.2839355,0,0,0,0,0,0
1.966665,0.07454614,1,-0.1927661,1,0,0,0,0,0,0,0,0,0,0,0,1,0,0,0,0,0,-0.0004882813,-0.770752,-0.3759766,0,0,0,0,0,0
1.969998,0.06669273,1,-0.2006854,1,0,0,0,0,0,0,0,0,0,0,0,1,0,0,0,0,0,0.07202148,-0.8037109,-0.4418945,0,0,0,0,0,0
1.973332,0.06669273,1,-0.2086106,1,0,0,0,0,0,0,0,0,0,0,0,1,0,0,0,0,0,0.07922363,-0.8328857,-0.3492432,0,0,0,0,0,0
1.976665,0.05884144,1,-0.2165419,1,0,0,0,0,0,0,0,0,0,0,0,1,0,0,0,0,0,0.0880127,-0.9193115,-0.2663574,0,0,0,0,0,0
1.979998,0.05884144,1,-0.2244794,1,0,0,0,0,0,0,0,0,0,0,0,1,0,0,0,0,0,0.07775879,-0.9344482,-0.2443848,0,0,0,0,0,0
1.983332,0.05884144,1,-0.2244794,1,0,0,0,0,0,0,0,0,0,0,0,1,0,0,0,0,0,0.03027344,-0.8833008,-0.2263184,0,0,0,0,0,0
1.986665,0.05884144,1,-0.2244794,1,0,0,0,0,0,0,0,0,0,0,0,1,0,0,0,0,0,-0.00378418,-0.8591309,-0.2182617,0,0,0,0,0,0
1.989998,0.07454614,1,-0.2244794,1,0,0,0,0,0,0,0,0,0,0,0,1,0,0,0,0,0,-0.008666992,-0.8795166,-0.2169189,0,0,0,0,0,0
1.993332,0.09812176,1,-0.2244794,1,0,0,0,0,0,0,0,0,0,0,0,1,0,0,0,0,0,-0.01123047,-0.9058838,-0.217041,0,0,0,0,0,0
1.996665,0.1217254,1,-0.2244794,1,0,0,0,0,0,0,0,0,0,0,0,1,0,0,0,0,0,-0.015625,-0.9107666,-0.1950684,0,0,0,0,0,0
1.999998,0.1611441,1,-0.2244794,1,0,0,0,0,0,0,0,0,0,0,0,1,0,0,0.08996613,0.005747836,-0.02174181,-0.004882813,-0.9144287,-0.1940918,0,0,0,0,0,0
2.003332,0.2086106,1,-0.2244794,1,0,0,0,0,0,0,0,0,0,0,0,1,0,0,0.08235975,0.007151687,-0.02191646,0.01147461,-0.9432373,-0.2015381,0,0,0,0,0,0
2.006665,0.2562958,1,-0.2244794,1,0,0,0,0,0,0,0,0,0,0,0,1,0,0,0.08421829,0.009246519,-0.02599021,0.03149414,-0.9625244,-0.2103271,0,0,0,0,0,0
2.009998,0.2562958,1,-0.2244794,1,0,0,0,0,0,0,0,0,0,0,0,1,0,0,0,0,0,0.03149414,-0.9625244,-0.2103271,0,0,0,0,0,0
2.013332,0.3042357,1,-0.2244794,1,0,0,0,0,0,0,0,0,0,0,0,1,0,0,0,0,0,0.02868652,-0.961792,-0.2276611,0,0,0,0,0,0
2.016665,0.3605264,1,-0.2244794,1,0,0,0,0,0,0,0,0,0,0,0,1,0,0,0,0,0,0.03198242,-0.9748535,-0.2199707,0,0,0,0,0,0
2.019998,0.4091095,1,-0.2244794,1,0,0,0,0,0,0,0,0,0,0,0,1,0,0,0,0,0,0.02734375,-0.9957275,-0.2250977,0,0,0,0,0,0
2.023332,0.4580168,1,-0.2244794,1,0,0,0,0,0,0,0,0,0,0,0,1,0,0,0,0,0,0.02001953,-1.02478,-0.2453613,0,0,0,0,0,0
2.026665,0.5072563,1,-0.2324234,1,0,0,0,0,0,0,0,0,0,0,0,1,0,0,0,0,0,0.009887695,-1.041992,-0.2348633,0,0,0,0,0,0
2.029998,0.5485454,1,-0.2483314,1,0,0,0,0,0,0,0,0,0,0,0,1,0,0,0,0,0,0.002075195,-1.046875,-0.2224121,0,0,0,0,0,0
2.033332,0.5817437,1,-0.2642672,1,0,0,0,0,0,0,0,0,0,0,0,1,0,0,0,0,0,0.002319336,-1.052002,-0.2181396,0,0,0,0,0,0
2.036665,0.6145629,1,-0.2882255,1,0,0,0,0,0,0,0,0,0,0,0,1,0,0,0,0,0,0.004638672,-1.069458,-0.2071533,0,0,0,0,0,0
2.039998,0.6464276,0.9917243,-0.3202776,1,0,0,0,0,0,0,0,0,0,0,0,1,0,0,0,0,0,-0.01403809,-1.076172,-0.1868896,0,0,0,0,0,0
2.043332,0.6789415,0.9762295,-0.3524597,1,0,0,0,0,0,0,0,0,0,0,0,1,0,0,0,0,0,-0.03674316,-1.062988,-0.1711426,0,0,0,0,0,0
2.046665,0.6862423,0.959134,-0.3928797,1,0,0,0,0,0,0,0,0,0,0,0,1,0,0,0,0,0,-0.04345703,-1.045532,-0.1784668,0,0,0,0,0,0
2.049998,0.7019819,0.9426614,-0.433522,1,0,0,0,0,0,0,0,0,0,0,0,1,0,0,0,0,0,-0.03234863,-1.037476,-0.2050781,0,0,0,0,0,0
2.053332,0.7262222,0.926836,-0.481615,1,0,0,0,0,0,0,0,0,0,0,0,1,0,0,0,0,0,-0.01696777,-1.027222,-0.2254639,0,0,0,0,0,0
2.056665,0.7420328,0.9104943,-0.5453978,0.9673843,0,0,0,0,0,0,0,0,0,0,0,1,0,0,0,0,0,-0.005615234,-1.018799,-0.2299805,0,0,0,0,0,0
2.059998,0.7499495,0.9023457,-0.6006819,0.9268799,0,0,0,0,0,0,0,0,0,0,0,1,0,0,-0.008996612,-0.01224539,-0.03923523,0.008911133,-1.021729,-0.2432861,0,0,0,0,0,0
2.063332,0.7578744,0.8942115,-0.6718884,0.870672,0,0,0,0,0,0,0,0,0,0,0,1,0,0,-0.01338058,-0.01430337,-0.03829613,0.03710938,-1.013306,-0.2602539,0,0,0,0,0,0
2.066665,0.7658077,0.8860916,-0.7412524,0.7808915,0,0,0,0,0,0,0,0,0,0,0,1,0,0,-0.01399473,-0.01999247,-0.04123447,0.08422852,-0.9990234,-0.3039551,0,0,0,0,0,0
2.069998,0.7658077,0.8860916,-0.7412524,0.7808915,0,0,0,0,0,0,0,0,0,0,0,1,0,0,0,0,0,0.08422852,-0.9990234,-0.3039551,0,0,0,0,0,0
2.073332,0.7823013,0.8785846,-0.8176712,0.6596672,0,0,0,0,0,0,0,0,0,0,0,1,0,0,0,0,0,0.09521484,-0.9836426,-0.2930908,0,0,0,0,0,0
2.076665,0.7982369,0.8624167,-0.8778723,0.5314474,0,0,0,0,0,0,0,0,0,0,0,1,0,0,0,0,0,0.08581543,-0.9683838,-0.2867432,0,0,0,0,0,0
2.079998,0.8142135,0.8463007,-0.9667169,0.3906326,0,0,0,0,0,0,0,0,0,0,0,1,0,0,0,0,0,0.08776855,-0.9681396,-0.2541504,0,0,0,0,0,0
2.083332,0.8216138,0.8296295,-1,0.2403741,0,0,0,0,0,0,0,0,0,0,0,1,0,0,0,0,0,0.1226807,-0.980835,-0.2302246,0,0,0,0,0,0
2.086665,0.8382612,0.8222179,-1,0.1374799,0,0,0,0,0,0,0,0,0,0,0,1,0,0,0,0,0,0.1968994,-1.010254,-0.2075195,0,0,0,0,0,0
2.089998,0.8456972,0.8056167,-1,0.09026043,0,0,0,0,0,0,0,0,0,0,0,1,0,0,0,0,0,0.05847168,-1.023071,-0.2346191,0,0,0,0,0,0
2.093332,0.8537496,0.7976347,-1,0.05099206,0,0,0,0,0,0,0,0,0,0,0,1,0,0,0,0,0,0.01416016,-0.9779053,-0.2528076,0,0,0,0,0,0
2.096665,0.8624167,0.7982369,-1,0.01176485,0,0,0,0,0,0,0,0,0,0,0,1,0,0,0,0,0,0.02124023,-0.9522705,-0.263916,0,0,0,0,0,0
2.099998,0.861815,0.7896631,-1,-0.035298,0,0,0,0,0,0,0,0,0,0,0,1,0,0,0,0,0,0.05993652,-0.9554443,-0.2479248,0,0,0,0,0,0
2.103332,0.8698937,0.7817017,-1,-0.07454614,0,0,0,0,0,0,0,0,0,0,0,1,0,0,0,0,0,0.09008789,-0.967041,-0.223999,0,0,0,0,0,0
2.106665,0.8698937,0.7817017,-1,-0.1059862,0,0,0,0,0,0,0,0,0,0,0,1,0,0,0,0,0,0.08117676,-0.9758301,-0.2252197,0,0,0,0,0,0
2.109998,0.877385,0.765208,-1,-0.1217254,0,0,0,0,0,0,0,0,0,0,0,1,0,0,0,0,0,0.06115723,-0.9788818,-0.248291,0,0,0,0,0,0
2.113332,0.885493,0.7572768,-1,-0.1374799,0,0,0,0,0,0,0,0,0,0,0,1,0,0,0,0,0,0.0390625,-0.9866943,-0.2668457,0,0,0,0,0,0
2.116665,0.8936152,0.7493544,-1,-0.1611441,0,0,0,0,0,0,0,0,0,0,0,1,0,0,0,0,0,0.04260254,-1.006104,-0.2811279,0,0,0,0,0,0
2.119998,0.8930173,0.740844,-1,-0.1769445,0,0,0,0,0,0,0,0,0,0,0,1,0,0,0,0,0,0.07055664,-1.001465,-0.310791,0,0,0,0,0,0
2.123332,0.9011568,0.7329409,-1,-0.1927661,0,0,0,0,0,0,0,0,0,0,0,1,0,0,0,0,0,0.0826416,-0.9796143,-0.3505859,0,0,0,0,0,0
2.126665,0.9093114,0.7250457,-1,-0.2086106,0,0,0,0,0,0,0,0,0,0,0,1,0,0,0,0,0,0.06665039,-0.989502,-0.2924805,0,0,0,0,0,0
2.129998,0.9168916,0.7086892,-1,-0.2165419,0,0,0,0,0,0,0,0,0,0,0,1,0,0,0.02499059,-0.04298382,0.05597892,0.01000977,-1.002686,-0.260498,0,0,0,0,0,0
2.133332,0.9250807,0.7008187,-1,-0.2244794,0,0,0,0,0,0,0,0,0,0,0,1,0,0,0.02375996,-0.03414053,0.05813117,0.008911133,-1.030029,-0.2347412,0,0,0,0,0,0
2.136665,0.9244941,0.6923701,-1,-0.2324234,0,0,0,0,0,0,0,0,0,0,0,1,0,0,0.02274144,-0.03223786,0.07297252,0.02368164,-1.03479,-0.227417,0,0,0,0,0,0
2.139998,0.9321206,0.6760875,-1,-0.2403741,0,0,0,0,0,0,0,0,0,0,0,1,0,0,0.02224163,-0.03023862,0.07996988,0.03308105,-1.005371,-0.2467041,0,0,0,0,0,0
2.143332,0.9321206,0.6760875,-1,-0.2403741,0,0,0,0,0,0,0,0,0,0,0,1,0,0,0,0,0,0.03308105,-1.005371,-0.2467041,0,0,0,0,0,0
2.146665,0.9397725,0.6598403,-1,-0.2403741,0,0,0,0,0,0,0,0,0,0,0,1,0,0,0,0,0,0.03601074,-0.9871826,-0.2683105,0,0,0,0,0,0
2.149998,0.9468793,0.6352481,-1,-0.2483314,0,0,0,0,0,0,0,0,0,0,0,1,0,0,0,0,0,0.1347656,-0.8898926,-0.3504639,0,0,0,0,0,0
2.153332,0.954028,0.6107376,-1,-0.2483314,0,0,0,0,0,0,0,0,0,0,0,1,0,0,0,0,0,0.01721191,-0.9376221,-0.3408203,0,0,0,0,0,0
2.156665,0.9606686,0.5779957,-1,-0.2562958,0,0,0,0,0,0,0,0,0,0,0,1,0,0,0,0,0,-0.02722168,-0.9980469,-0.3123779,0,0,0,0,0,0
2.159998,0.9495519,0.5443038,-1,-0.2562958,0,0,0,0,0,0,0,0,0,0,0,0,0,0,0,0,0,-0.078125,-1.054077,-0.2753906,0,0,0,0,0,0
2.163332,0.9021901,0.5003413,-1,-0.2562958,0,0,0,0,0,0,0,0,0,0,0,0,0,0,0,0,0,-0.09533691,-1.031982,-0.2194824,0,0,0,0,0,0
2.166665,0.8375278,0.4635619,-1,-0.2562958,0,0,0,0,0,0,0,0,0,0,0,0,0,0,0,0,0,-0.08166504,-1.010498,-0.1916504,0,0,0,0,0,0
2.169998,0.7374519,0.4241304,-1,-0.2562958,0,0,0,0,0,0,0,0,0,0,0,0,0,0,0,0,0,-0.05761719,-1.048218,-0.1779785,0,0,0,0,0,0
2.173331,0.6202729,0.3825636,-1,-0.2562958,0,0,0,0,0,0,0,0,0,0,0,0,0,0,0.04773203,-0.03073842,0.07872036,0.001708984,-1.120728,-0.2399902,0,0,0,0,0,0
2.176665,0.4795249,0.3445475,-1,-0.2562958,0,0,0,0,0,0,0,0,0,0,0,0,0,0,0.04936536,-0.02375996,0.0599766,-0.05395508,-0.9865723,-0.08410645,0,0,0,0,0,0
2.179998,0.4795249,0.3445475,-1,-0.2562958,0,0,0,0,0,0,0,0,0,0,0,0,0,0,0,0,0,-0.05395508,-0.9865723,-0.08410645,0,0,0,0,0,0
2.183331,0.3442221,0.3108025,-1,-0.2562958,0,0,0,0,0,0,0,0,0,0,0,0,0,0,0,0,0,-0.05529785,-0.9212646,-0.08764648,0,0,0,0,0,0
2.186665,0.2175152,0.2726598,-1,-0.2483314,0,0,0,0,0,0,0,0,0,0,0,0,0,0,0,0,0,-0.07141113,-0.9249268,-0.1132813,0,0,0,0,0,0
2.189998,0.1048828,0.2232122,-1,-0.2403741,0,0,0,0,0,0,0,0,0,0,0,0,0,0,0,0,0,-0.04748535,-0.956665,-0.1083984,0,0,0,0,0,0
2.193331,0.02700255,0.1988369,-1,-0.2165419,0,0,0,0,0,0,0,0,0,0,0,0,0,0,0,0,0,-0.01025391,-1.000854,-0.135376,0,0,0,0,0,0
2.196665,-0.03628522,0.1911022,-1,-0.1927661,0,0,0,0,0,0,0,0,0,0,0,0,0,0,0,0,0,-0.00402832,-1.016846,-0.1833496,0,0,0,0,0,0
2.199998,-0.112344,0.2011741,-1,-0.1690417,0,0,0,0,0,0,0,0,0,0,0,0,0,0,0,0,0,-0.004516602,-0.9832764,-0.1933594,0,0,0,0,0,0
2.203331,-0.2153807,0.2271824,-1,-0.1453634,0,0,0,0,0,0,0,0,0,0,0,0,0,0,0,0,0,0.01245117,-0.9639893,-0.1610107,0,0,0,0,0,0
2.206665,-0.3364865,0.2646156,-1,-0.1217254,0,0,0,0,0,0,0,0,0,0,0,0,0,0,0,0,0,0.02563477,-0.9833984,-0.1495361,0,0,0,0,0,0
2.209998,-0.4926751,0.3154538,-1,-0.09812176,0,0,0,0,0,0,0,0,0,0,0,0,0,0,0.01049605,-0.01799322,-0.009246519,0.03515625,-0.9934082,-0.1773682,0,0,0,0,0,0
2.213331,-0.6625929,0.3706028,-1,-0.07454614,0,0,0,0,0,0,0,0,0,0,0,0,0,0,0.01074595,-0.01849304,-0.009246519,0.009643555,-0.9953613,-0.1966553,0,0,0,0,0,0
2.216665,-0.8613404,0.424824,-1,-0.05099206,0,0,0,0,0,0,0,0,0,0,0,0,0,0,0.01153396,-0.01361008,-0.006228339,-0.02807617,-1.017822,-0.1634521,0,0,0,0,0,0
2.219998,-0.9885796,0.4565729,-1,-0.035298,0,0,0,0,0,0,0,0,0,0,0,0,0,0,0.007996988,-0.008746706,0.00549793,0.0567627,-1.092896,-0.1651611,0,0,0,0,0,0
2.223331,-0.9885796,0.4565729,-1,-0.035298,0,0,0,0,0,0,0,0,0,0,0,0,0,0,0,0,0,0.0567627,-1.092896,-0.1651611,0,0,0,0,0,0
2.226665,-1,0.4330592,-1,-0.01176485,0,0,0,0,0,0,0,0,0,0,0,0,0,0,0,0,0,0.02685547,-1.068237,-0.1577148,0,0,0,0,0,0
2.229998,-1,0.3928797,-1,0,0,0,0,0,0,0,0,0,0,0,0,0,0,0,0,0,0,-0.02954102,-1.036499,-0.1119385,0,0,0,0,0,0
2.233331,-1,0.3605264,-1,0.02745281,0,0,0,0,0,0,0,0,0,0,0,0,0,0,0,0,0,-0.05200195,-1.076172,-0.09375,0,0,0,0,0,0
2.236665,-1,0.3444016,-1,0.04314433,0,0,0,0,0,0,0,0,0,0,0,1,0,0,0,0,0,-0.06005859,-1.096802,-0.09216309,0,0,0,0,0,0
2.239998,-1,0.3444016,-1,0.06669273,0,0,0,0,0,0,0,0,0,0,0,1,0,0,0,0,0,-0.04199219,-1.037231,-0.1540527,0,0,0,0,0,0
2.243331,-1,0.336352,-1,0.09026043,0,0,0,0,0,0,0,0,0,0,0,1,0,0,0,0,0,-0.03039551,-0.9908447,-0.2255859,0,0,0,0,0,0
2.246665,-1,0.3283107,-1,0.09812176,0,0,0,0,0,0,0,0,0,0,0,1,0,0,0,0,0,-0.02734375,-0.9698486,-0.2393799,0,0,0,0,0,0
2.249998,-1,0.3283107,-1,0.113854,0,0,0,0,0,0,0,0,0,0,0,1,0,0,0,0,0,-0.112793,-0.8173828,-0.01525879,0,0,0,0,0,0
2.253331,-1,0.3122526,-1,0.113854,0,0,0,0,0,0,0,0,0,0,0,1,0,0,0,0,0,-0.1702881,-0.855835,-0.1936035,0,0,0,0,0,0
2.256665,-1,0.3042357,-1,0.1217254,0,0,0,0,0,0,0,0,0,0,0,1,0,0,0,0,0,-0.1080322,-1.002441,-0.1552734,0,0,0,0,0,0
2.259998,-1,0.2722459,-1,0.1374799,0,0,0,0,0,0,0,0,0,0,0,1,0,0,-0.08529757,0.02660567,-0.101427,0.01379395,-0.9202881,-0.3699951,0,0,0,0,0,0
2.263331,-1,0.2244794,-1,0.1374799,0,0,0,0,0,0,0,0,0,0,0,1,0,0,0,0,0,0.02990723,-0.9110107,-0.4080811,0,0,0,0,0,0
2.266665,-1,0.2006854,-1,0.1374799,0,0,0,0,0,0,0,0,0,0,0,1,0,0,-0.004998118,-0.03948513,-0.0594776,0.03088379,-0.9091797,-0.3928223,0,0,0,0,0,0
2.269998,-1,0.1690417,-1,0.1374799,0,0,0,0,0,0,0,0,0,0,0,1,0,0,0.002076113,-0.04498245,-0.05605506,0.02783203,-0.9239502,-0.3896484,0,0,0,0,0,0
2.273331,-1,0.1296006,-1,0.1374799,0,0,0,0,0,0,0,0,0,0,0,1,0,0,0.009996235,-0.05647873,-0.06122695,0.0189209,-0.9337158,-0.3688965,0,0,0,0,0,0
2.276665,-1,0.1296006,-1,0.1374799,0,0,0,0,0,0,0,0,0,0,0,1,0,0,0,0,0,0.0189209,-0.9337158,-0.3688965,0,0,0,0,0,0
2.279998,-1,0.09026043,-1,0.1374799,0,0,0,0,0,0,0,0,0,0,0,1,0,0,0,0,0,0.01403809,-0.9400635,-0.3338623,0,0,0,0,0,0
2.283331,-1,0.04314433,-1,0.1374799,0,0,0,0,0,0,0,0,0,0,0,1,0,0,0,0,0,0.01879883,-0.9471436,-0.3033447,0,0,0,0,0,0
2.286665,-1,-0.003921574,-1,0.1374799,0,0,0,0,0,0,0,0,0,0,0,1,0,0,0,0,0,0.04199219,-0.9592285,-0.2969971,0,0,0,0,0,0
2.289998,-1,-0.05099206,-1,0.1374799,0,0,0,0,0,0,0,0,0,0,0,1,0,0,0,0,0,0.06030273,-0.9923096,-0.2877197,0,0,0,0,0,0
2.293331,-1,-0.09812176,-1,0.1296006,0,0,0,0,0,0,0,0,0,0,0,1,0,0,0,0,0,0.07336426,-1.008667,-0.2614746,0,0,0,0,0,0
2.296665,-1,-0.1296006,-1,0.113854,0,0,0,0,0,0,0,0,0,0,0,1,0,0,0,0,0,0.08154297,-1.028809,-0.2205811,0,0,0,0,0,0
2.299998,-1,-0.1532514,-1,0.09812176,0,0,0,0,0,0,0,0,0,0,0,1,0,0,0,0,0,0.08947754,-1.030273,-0.2218018,0,0,0,0,0,0
2.303331,-1,-0.1769445,-1,0.08240198,0,0,0,0,0,0,0,0,0,0,0,1,0,0,0,0,0,0.06848145,-1.006958,-0.1630859,0,0,0,0,0,0
2.306665,-1,-0.1927661,-1,0.05884144,0,0,0,0,0,0,0,0,0,0,0,1,0,0,0,0,0,-0.01806641,-0.9818115,-0.1260986,0,0,0,0,0,0
2.309998,-1,-0.2086106,-1,0.04314433,0,0,0,0,0,0,0,0,0,0,0,1,0,0,0,0,0,-0.02880859,-1.030396,-0.09973145,0,0,0,0,0,0
2.313331,-1,-0.2165419,-1,0.02745281,0,0,0,0,0,0,0,0,0,0,0,1,0,0,0,0,0,-0.002441406,-1.026001,-0.1182861,0,0,0,0,0,0
2.316665,-1,-0.2244794,-1,0.01176485,0,0,0,0,0,0,0,0,0,0,0,1,0,0,0.04173768,0.004998525,0.006748009,0.01965332,-1.017212,-0.1767578,0,0,0,0,0,0
2.319998,-1,-0.2324234,-1,-0.003921574,0,0,0,0,0,0,0,0,0,0,0,1,0,0,0.04398344,0.006497554,0.0124953,0.02319336,-1.030884,-0.2126465,0,0,0,0,0,0
2.323331,-1,-0.2403741,-1,-0.01960851,0,0,0,0,0,0,0,0,0,0,0,1,0,0,0.03944615,0.005536302,0.01614755,0.02709961,-1.0448,-0.2374268,0,0,0,0,0,0
2.326665,-1,-0.2403741,-1,-0.035298,0,0,0,0,0,0,0,0,0,0,0,1,0,0,0.03673617,0.004748212,0.021242,0.015625,-1.057495,-0.2406006,0,0,0,0,0,0
2.329998,-1,-0.2403741,-1,-0.035298,0,0,0,0,0,0,0,0,0,0,0,1,0,0,0,0,0,0.015625,-1.057495,-0.2406006,0,0,0,0,0,0
2.333331,-1,-0.2403741,-1,-0.04314433,0,0,0,0,0,0,0,0,0,0,0,0,0,0,0,0,0,0.01037598,-1.068237,-0.225708,0,0,0,0,0,0
2.336665,-1,-0.2403741,-1,-0.05099206,0,0,0,0,0,0,0,0,0,0,0,0,0,0,0,0,0,-0.001342773,-1.025269,-0.2313232,0,0,0,0,0,0
2.339998,-1,-0.2403741,-1,-0.05884144,0,0,0,0,0,0,0,0,0,0,0,0,0,0,0,0,0,-0.0111084,-1.016602,-0.2373047,0,0,0,0,0,0
2.343331,-1,-0.2403741,-1,-0.06669273,0,0,0,0,0,0,0,0,0,0,0,0,0,0,0,0,0,-0.02600098,-1.015991,-0.2243652,0,0,0,0,0,0
2.346665,-1,-0.2403741,-1,-0.07454614,0,0,0,0,0,0,0,0,0,0,0,0,0,0,0,0,0,-0.0006103516,-1.116577,-0.2677002,0,0,0,0,0,0
2.349998,-1,-0.2403741,-1,-0.07454614,0,0,0,0,0,0,0,0,0,0,0,0,0,0,0,0,0,-0.02844238,-0.9671631,-0.1850586,0,0,0,0,0,0
2.353331,-1,-0.2403741,-1,-0.07454614,0,0,0,0,0,0,0,0,0,0,0,0,0,0,0,0,0,-0.01196289,-0.9403076,-0.2122803,0,0,0,0,0,0
2.356665,-1,-0.2403741,-1,-0.08240198,0,0,0,0,0,0,0,0,0,0,0,0,0,0,0,0,0,0.003417969,-0.9206543,-0.2330322,0,0,0,0,0,0
2.359998,-1,-0.2403741,-1,-0.08240198,0,0,0,0,0,0,0,0,0,0,0,0,0,0,-0.003248777,0.007996988,-0.01174558,0.005493164,-0.9731445,-0.211792,0,0,0,0,0,0
2.363331,-1,-0.2324234,-1,-0.08240198,0,0,0,0,0,0,0,0,0,0,0,0,0,0,-0.01176568,0.008997284,-0.01545687,0.0177002,-1.005493,-0.1903076,0,0,0,0,0,0
2.366665,-1,-0.2165419,-1,-0.08240198,0,0,0,0,0,0,0,0,0,0,0,0,0,0,-0.0167437,0.008246895,-0.0167437,0.02685547,-0.9949951,-0.2087402,0,0,0,0,0,0
2.369998,-1,-0.2165419,-1,-0.08240198,0,0,0,0,0,0,0,0,0,0,0,0,0,0,0,0,0,0.02685547,-0.9949951,-0.2087402,0,0,0,0,0,0
2.373331,-1,-0.2006854,-1,-0.08240198,0,0,0,0,0,0,0,0,0,0,0,0,0,0,0,0,0,0.005737305,-0.9863281,-0.2181396,0,0,0,0,0,0
2.376665,-1,-0.1848525,-1,-0.08240198,0,0,0,0,0,0,0,0,0,0,0,0,0,0,0,0,0,-0.02844238,-0.9881592,-0.2254639,0,0,0,0,0,0
2.379998,-1,-0.1690417,-1,-0.08240198,0,0,0,0,0,0,0,0,0,0,0,0,0,0,0,0,0,-0.02331543,-1.013428,-0.2020264,0,0,0,0,0,0
2.383331,-1,-0.1532514,-1,-0.08240198,0,0,0,0,0,0,0,0,0,0,0,0,0,0,0,0,0,-0.003295898,-1.031616,-0.2198486,0,0,0,0,0,0
2.386665,-1,-0.1217254,-1,-0.08240198,0,0,0,0,0,0,0,0,0,0,0,0,0,0,0,0,0,0.009643555,-1.050781,-0.2142334,0,0,0,0,0,0
2.389998,-1,-0.1059862,-1,-0.08240198,0,0,0,0,0,0,0,0,0,0,0,0,0,0,0,0,0,0.009399414,-1.050293,-0.1862793,0,0,0,0,0,0
2.393331,-1,-0.07454614,-1,-0.08240198,0,0,0,0,0,0,0,0,0,0,0,0,0,0,0,0,0,0.0009765625,-1.047729,-0.1643066,0,0,0,0,0,0
2.396665,-1,-0.04314433,-1,-0.08240198,0,0,0,0,0,0,0,0,0,0,0,0,0,0,0,0,0,-0.004638672,-1.057983,-0.1507568,0,0,0,0,0,0
2.399998,-1,-0.01176485,-1,-0.08240198,0,0,0,0,0,0,0,0,0,0,0,1,0,0,0,0,0,-0.005126953,-1.071655,-0.1400146,0,0,0,0,0,0
2.403331,-1,0.02745281,-1,-0.08240198,0,0,0,0,0,0,0,0,0,0,0,1,0,0,-0.08196913,-0.004498306,-0.008246895,-0.001220703,-1.067993,-0.1374512,0,0,0,0,0,0
2.406665,-1,0.06669273,-1,-0.08240198,0,0,0,0,0,0,0,0,0,0,0,1,0,0,-0.1094588,-0.003498683,-0.01874294,0.01000977,-1.032959,-0.1479492,0,0,0,0,0,0
2.409998,-1,0.09812176,-1,-0.08240198,0,0,0,0,0,0,0,0,0,0,0,1,0,0,-0.1217042,-0.006497554,-0.02574031,0.01269531,-1.023804,-0.1923828,0,0,0,0,0,0
2.413331,-1,0.09812176,-1,-0.08240198,0,0,0,0,0,0,0,0,0,0,0,1,0,0,0,0,0,0.01269531,-1.023804,-0.1923828,0,0,0,0,0,0
2.416665,-1,0.1296006,-1,-0.09812176,0,0,0,0,0,0,0,0,0,0,0,1,0,0,0,0,0,0.006469727,-1.030273,-0.2194824,0,0,0,0,0,0
2.419998,-1,0.1690417,-1,-0.113854,0,0,0,0,0,0,0,0,0,0,0,1,0,0,0,0,0,-0.006958008,-1.021606,-0.2314453,0,0,0,0,0,0
2.423331,-1,0.2086106,-1,-0.1296006,0,0,0,0,0,0,0,0,0,0,0,1,0,0,0,0,0,-0.0144043,-1.00708,-0.2355957,0,0,0,0,0,0
2.426665,-1,0.2403741,-1,-0.1532514,0,0,0,0,0,0,0,0,0,0,0,1,0,0,0,0,0,-0.02233887,-0.9802246,-0.2602539,0,0,0,0,0,0
2.429998,-1,0.2722459,-1,-0.1769445,0,0,0,0,0,0,0,0,0,0,0,1,0,0,0,0,0,-0.02722168,-0.9632568,-0.298584,0,0,0,0,0,0
2.433331,-1,0.3042357,-1,-0.2006854,0,0,0,0,0,0,0,0,0,0,0,1,0,0,0,0,0,-0.02026367,-0.9613037,-0.3139648,0,0,0,0,0,0
2.436665,-1,0.3283107,-1,-0.2324234,0,0,0,0,0,0,0,0,0,0,0,1,0,0,0,0,0,-0.005981445,-0.9732666,-0.3210449,0,0,0,0,0,0
2.439998,-1,0.3605264,-1,-0.2642672,0,0,0,0,0,0,0,0,0,0,0,1,0,0,0,0,0,0.01123047,-0.9785156,-0.3426514,0,0,0,0,0,0
2.443331,-1,0.3762585,-1,-0.2962267,0,0,0,0,0,0,0,0,0,0,0,1,0,0,-0.1059601,-0.02848927,-0.04498306,0.04589844,-1.000854,-0.315918,0,0,0,0,0,0
2.446665,-1,0.4005468,-1,-0.3444016,0,0,0,0,0,0,0,0,0,0,0,1,0,0,-0.09943152,-0.02353136,-0.03783473,0.01794434,-0.9802246,-0.3178711,0,0,0,0,0,0
2.449998,-1,0.4005468,-1,-0.3444016,0,0,0,0,0,0,0,0,0,0,0,1,0,0,0,0,0,0.01794434,-0.9802246,-0.3178711,0,0,0,0,0,0
2.453331,-0.9956806,0.4244535,-1,-0.3847782,0,0,0,0,0,0,0,0,0,0,0,1,0,0,0,0,0,0.003295898,-0.9263916,-0.3380127,0,0,0,0,0,0
2.456665,-0.9876082,0.4402591,-1,-0.4253754,0,0,0,0,0,0,0,0,0,0,0,1,0,0,0,0,0,0.005859375,-0.9342041,-0.3217773,0,0,0,0,0,0
2.459998,-0.9705868,0.4555815,-1,-0.4662001,0,0,0,0,0,0,0,0,0,0,0,1,0,0,0,0,0,0.01330566,-0.9509277,-0.3010254,0,0,0,0,0,0
2.463331,-0.9715978,0.4719189,-1,-0.5072563,0,0,0,0,0,0,0,0,0,0,0,1,0,0,0,0,0,0.01452637,-0.9620361,-0.2896729,0,0,0,0,0,0
2.466665,-0.9636579,0.4877774,-1,-0.5557991,0,0,0,0,0,0,0,0,0,0,0,1,0,0,0,0,0,0.02807617,-0.9719238,-0.2713623,0,0,0,0,0,0
2.469998,-0.9652384,0.5124105,-0.979558,-0.5957312,0,0,0,0,0,0,0,0,0,0,0,1,0,0,0,0,0,0.04052734,-0.9731445,-0.2595215,0,0,0,0,0,0
2.473331,-0.9568346,0.5201051,-0.9474515,-0.6436275,0,0,0,0,0,0,0,0,0,0,0,1,0,0,0,0,0,0.04602051,-0.9893799,-0.2436523,0,0,0,0,0,0
2.476665,-0.9495519,0.5443038,-0.9151183,-0.6833416,0,0,0,0,0,0,0,0,0,0,0,1,0,0,0,0,0,0.05493164,-0.9864502,-0.2213135,0,0,0,0,0,0
2.479998,-0.9417656,0.5602909,-0.8749644,-0.7311347,0,0,0,0,0,0,0,0,0,0,0,1,0,0,0,0,0,0.06311035,-0.9929199,-0.1865234,0,0,0,0,0,0
2.483331,-0.9340156,0.5763075,-0.8438712,-0.7798811,0,0,0,0,0,0,0,0,0,0,0,0,0,0,0,0,0,0.0625,-1.009277,-0.1641846,0,0,0,0,0,0
2.486665,-0.9268799,0.6006819,-0.7951917,-0.8191673,0,0,0,0,0,0,0,0,0,0,0,0,0,0,0,0,0,0.05200195,-1.00769,-0.1553955,0,0,0,0,0,0
2.489998,-0.9103752,0.6161929,-0.7469335,-0.8587738,0,0,0,0,0,0,0,0,0,0,0,0,0,0,0,0,0,0.03076172,-1.012939,-0.1617432,0,0,0,0,0,0
2.493331,-0.9033475,0.6407002,-0.698437,-0.8900082,0,0,0,0,0,0,0,0,0,0,0,0,0,0,-0.06272638,0.04023485,0.02149191,0.01635742,-1.008789,-0.1673584,0,0,0,0,0,0
2.496665,-0.8869745,0.6562817,-0.6502753,-0.9215559,0,0,0,0,0,0,0,0,0,0,0,0,0,0,-0.06343679,0.04382905,0.01983842,0.01306152,-0.9952393,-0.1859131,0,0,0,0,0,0
2.499998,-0.8712887,0.6803213,-0.6018312,-0.9445959,0,0,0,0,0,0,0,0,0,0,0,0,0,0,-0.07172299,0.05472939,0.0209921,0.006225586,-0.9819336,-0.2015381,0,0,0,0,0,0
2.503331,-0.855685,0.7044476,-0.55367,-0.9679267,0,0,0,0,0,0,0,0,0,0,0,0,0,0,-0.07572149,0.05797817,0.01949266,0.006347656,-1.000366,-0.2420654,0,0,0,0,0,0
2.506665,-0.8395301,0.7201656,-0.5134615,-0.9831394,0,0,0,0,0,0,0,0,0,0,0,0,0,0,-0.07382386,0.053753,0.01545687,-0.003662109,-0.9661865,-0.2246094,0,0,0,0,0,0
2.509998,-0.8395301,0.7201656,-0.5134615,-0.9831394,0,0,0,0,0,0,0,0,0,0,0,0,0,0,0,0,0,-0.003662109,-0.9661865,-0.2246094,0,0,0,0,0,0
2.513331,-0.8240681,0.7444481,-0.4739094,-1,0,0,0,0,0,0,0,0,0,0,0,0,0,0,0,0,0,-0.01721191,-0.9367676,-0.2178955,0,0,0,0,0,0
2.516665,-0.8160461,0.7523547,-0.4253754,-1,0,0,0,0,0,0,0,0,0,0,0,0,0,0,0,0,0,-0.02209473,-0.9123535,-0.1986084,0,0,0,0,0,0
2.519998,-0.8000447,0.7682021,-0.3847782,-1,0,0,0,0,0,0,0,0,0,0,0,0,0,0,0,0,0,-0.03027344,-0.9128418,-0.1976318,0,0,0,0,0,0
2.523331,-0.7840977,0.7840977,-0.3605264,-1,0,0,0,0,0,0,0,0,0,0,0,0,0,0,0,0,0,-0.05407715,-0.9359131,-0.237793,0,0,0,0,0,0
2.526664,-0.7847294,0.7926962,-0.3122526,-1,0,0,0,0,0,0,0,0,0,0,0,0,0,0,0,0,0,-0.03234863,-0.9760742,-0.2557373,0,0,0,0,0,0
2.529998,-0.7767752,0.800676,-0.2802319,-1,0,0,0,0,0,0,0,0,0,0,0,0,0,0,0,0,0,-0.002685547,-0.980835,-0.2774658,0,0,0,0,0,0
2.533331,-0.7688331,0.808669,-0.2562958,-1,0,0,0,0,0,0,0,0,0,0,0,0,0,0,0,0,0,-0.0001220703,-0.9676514,-0.3057861,0,0,0,0,0,0
2.536664,-0.7694606,0.8173026,-0.2244794,-1,0,0,0,0,0,0,0,0,0,0,0,0,0,0,0,0,0,-0.0168457,-0.9885254,-0.2972412,0,0,0,0,0,0
2.539998,-0.7621517,0.8339776,-0.2006854,-1,0,0,0,0,0,0,0,0,0,0,0,0,0,0,0,0,0,-0.0201416,-1.022217,-0.2800293,0,0,0,0,0,0
2.543331,-0.7627706,0.8426419,-0.1769445,-1,0,0,0,0,0,0,0,0,0,0,0,1,0,0,0,0,0,-0.01501465,-1.035645,-0.2556152,0,0,0,0,0,0
2.546664,-0.7633857,0.8513149,-0.1611441,-1,0,0,0,0,0,0,0,0,0,0,0,1,0,0,-0.07522168,0.03073842,0.01599398,-0.009033203,-1.035889,-0.28479,0,0,0,0,0,0
2.549998,-0.7554604,0.8593862,-0.1374799,-1,0,0,0,0,0,0,0,0,0,0,0,1,0,0,-0.07022355,0.02499059,0.01999247,-0.002929688,-1.023193,-0.2946777,0,0,0,0,0,0
2.553331,-0.7560699,0.8680802,-0.113854,-1,0,0,0,0,0,0,0,0,0,0,0,1,0,0,-0.0674746,0.02049228,0.01774332,-0.01318359,-0.9975586,-0.3000488,0,0,0,0,0,0
2.556664,-0.7560699,0.8680802,-0.113854,-1,0,0,0,0,0,0,0,0,0,0,0,1,0,0,0,0,0,-0.01318359,-0.9975586,-0.3000488,0,0,0,0,0,0
2.559998,-0.7566752,0.8767824,-0.09812176,-1,0,0,0,0,0,0,0,0,0,0,0,1,0,0,0,0,0,-0.01196289,-0.9827881,-0.3122559,0,0,0,0,0,0
2.563331,-0.7481521,0.8761782,-0.08240198,-1,0,0,0,0,0,0,0,0,0,0,0,1,0,0,0,0,0,-0.01635742,-0.9685059,-0.3304443,0,0,0,0,0,0
2.566664,-0.7481521,0.8761782,-0.07454614,-1,0,0,0,0,0,0,0,0,0,0,0,1,0,0,0,0,0,-0.05212402,-0.9375,-0.2570801,0,0,0,0,0,0
2.569998,-0.7487553,0.8848926,-0.06669273,-1,0,0,0,0,0,0,0,0,0,0,0,1,0,0,0,0,0,-0.08642578,-0.8497314,-0.2955322,0,0,0,0,0,0
2.573331,-0.7487553,0.8848926,-0.05884144,-1,0,0,0,0,0,0,0,0,0,0,0,1,0,0,0,0,0,-0.06298828,-0.8961182,-0.3825684,0,0,0,0,0,0
2.576664,-0.7487553,0.8848926,-0.05884144,-1,0,0,0,0,0,0,0,0,0,0,0,1,0,0,0,0,0,0.02307129,-0.888916,-0.3939209,0,0,0,0,0,0
2.579998,-0.7402433,0.8842907,-0.05884144,-1,0,0,0,0,0,0,0,0,0,0,0,1,0,0,0,0,0,0.07006836,-0.8071289,-0.4853516,0,0,0,0,0,0
2.583331,-0.7402433,0.8842907,-0.06669273,-1,0,0,0,0,0,0,0,0,0,0,0,1,0,0,0,0,0,0.08825684,-0.7670898,-0.559082,0,0,0,0,0,0
2.586664,-0.7402433,0.8842907,-0.07454614,-1,0,0,0,0,0,0,0,0,0,0,0,1,0,0,0,0,0,0.08972168,-0.7762451,-0.5667725,0,0,0,0,0,0
2.589998,-0.7402433,0.8842907,-0.08240198,-1,0,0,0,0,0,0,0,0,0,0,0,1,0,0,0.05236419,-0.03621664,-0.06828105,0.07470703,-0.78479,-0.5328369,0,0,0,0,0,0
2.593331,-0.7402433,0.8842907,-0.1059862,-1,0,0,0,0,0,0,0,0,0,0,0,1,0,0,0.06922394,-0.04523297,-0.08021979,0.05566406,-0.8189697,-0.4851074,0,0,0,0,0,0
2.596664,-0.7402433,0.8842907,-0.1217254,-1,0,0,0,0,0,0,0,0,0,0,0,1,0,0,0.0762213,-0.0467324,-0.08496801,0.05444336,-0.8431396,-0.4329834,0,0,0,0,0,0
2.599998,-0.7402433,0.8842907,-0.1217254,-1,0,0,0,0,0,0,0,0,0,0,0,1,0,0,0,0,0,0.05444336,-0.8431396,-0.4329834,0,0,0,0,0,0
2.603331,-0.7487553,0.8848926,-0.1469499,-0.7724288,0,0,0,0,0,0,0,0,0,0,0,1,0,0,0.08796688,-0.04548287,-0.09021603,-0.005004883,-0.8709717,-0.3135986,0,0,0,0,0,0
2.606664,-0.7487553,0.8848926,-0.1469499,-0.7724288,0,0,0,0,0,0,0,0,0,0,0,1,0,0,0,0,0,-0.005004883,-0.8709717,-0.3135986,0,0,0,0,0,0
2.609998,-0.7572768,0.885493,-0.1397989,-0.5986262,0,0,0,0,0,0,0,0,0,0,0,1,0,0,0,0,0,-0.03442383,-0.8909912,-0.2819824,0,0,0,0,0,0
2.613331,-0.7658077,0.8860916,-0.1349424,-0.4179924,0,0,0,0,0,0,0,0,0,0,0,1,0,0,0,0,0,-0.0246582,-0.9116211,-0.2523193,0,0,0,0,0,0
2.616664,-0.77375,0.8779858,-0.106218,-0.1994827,0,0,0,0,0,0,0,0,0,0,0,1,0,0,0,0,0,0.02258301,-0.9232178,-0.2421875,0,0,0,0,0,0
2.619998,-0.7817017,0.8698937,-0.04508467,-0.03188915,0,0,0,0,0,0,0,0,0,0,0,1,0,0,0,0,0,0.08081055,-0.9273682,-0.2659912,0,0,0,0,0,0
2.623331,-0.7817017,0.8698937,0,0,0,0,0,0,0,0,0,0,0,0,0,1,0,0,0,0,0,0.1143799,-0.8551025,-0.3787842,0,0,0,0,0,0
2.626664,-0.7896631,0.861815,0,0,0,0,0,0,0,0,0,0,0,0,0,1,0,0,0,0,0,0.1186523,-0.8911133,-0.3432617,0,0,0,0,0,0
2.629998,-0.7976347,0.8537496,0,0,0,0,0,0,0,0,0,0,0,0,0,1,0,0,0,0,0,0.1175537,-0.9453125,-0.2711182,0,0,0,0,0,0
2.633331,-0.7976347,0.8537496,-0.02120331,0.0255902,0,0,0,0,0,0,0,0,0,0,0,1,0,0,0,0,0,0.1435547,-1.008667,-0.2186279,0,0,0,0,0,0
2.636664,-0.7970289,0.8450909,-0.03188915,0.04508467,0,0,0,0,0,0,0,0,0,0,0,1,0,0,0,0,0,0.1447754,-1.036011,-0.1602783,0,0,0,0,0,0
2.639998,-0.8056167,0.8456972,-0.0411287,0.06665685,0,0,0,0,0,0,0,0,0,0,0,0,0,0,0.1019602,-0.02629743,-0.06251407,0.1379395,-1.072021,-0.1386719,0,0,0,0,0,0
2.643331,-0.8056167,0.8456972,-0.04656489,0.08188999,0,0,0,0,0,0,0,0,0,0,0,0,0,0,0.09146556,-0.02024238,-0.05372977,0.125,-1.095947,-0.1546631,0,0,0,0,0,0
2.646664,-0.8056167,0.8456972,-0.04656489,0.08188999,0,0,0,0,0,0,0,0,0,0,0,0,0,0,0,0,0,0.125,-1.095947,-0.1546631,0,0,0,0,0,0
2.649998,-0.8056167,0.8456972,-0.05148719,0.09764812,0,0,0,0,0,0,0,0,0,0,0,0,0,0,0,0,0,0.112793,-1.096313,-0.1860352,0,0,0,0,0,0
2.653331,-0.8056167,0.8456972,-0.05802549,0.1220536,0,0,0,0,0,0,0,0,0,0,0,0,0,0,0,0,0,0.1009521,-1.076904,-0.1953125,0,0,0,0,0,0
2.656664,-0.8056167,0.8456972,-0.04881565,0.1422021,0,0,0,0,0,0,0,0,0,0,0,0,0,0,0,0,0,0.1218262,-1.122681,-0.2144775,0,0,0,0,0,0
2.659998,-0.8056167,0.8456972,-0.0432088,0.1660127,0,0,0,0,0,0,0,0,0,0,0,0,0,0,0,0,0,0.06750488,-1.123901,-0.2381592,0,0,0,0,0,0
2.663331,-0.7976347,0.8537496,-0.02154746,0.1891388,0,0,0,0,0,0,0,0,0,0,0,0,0,0,0,0,0,0.08166504,-1.052124,-0.1828613,0,0,0,0,0,0
2.666664,-0.7890585,0.8531445,0.002537629,0.2156985,0,0,0,0,0,0,0,0,0,0,0,0,0,0,0,0,0,0.07543945,-1.013062,-0.1745605,0,0,0,0,0,0
2.669998,-0.7817017,0.8698937,0.03554653,0.2542944,0,0,0,0,0,0,0,0,0,0,0,0,0,0,0,0,0,0.0657959,-1.008057,-0.1622314,0,0,0,0,0,0
2.673331,-0.77375,0.8779858,0.0669298,0.2939091,0,0,0,0,0,0,0,0,0,0,0,0,0,0,0,0,0,0.05981445,-1.049683,-0.1140137,0,0,0,0,0,0
2.676664,-0.765208,0.877385,0.1002409,0.3250235,0,0,0,0,0,0,0,0,0,0,0,0,0,0,0,0,0,0.04760742,-1.097534,-0.1085205,0,0,0,0,0,0
2.679998,-0.7487553,0.8848926,0.1433067,0.3662282,0,0,0,0,0,0,0,0,0,0,0,0,0,0,0,0,0,0.01757813,-1.117554,-0.1334229,0,0,0,0,0,0
2.683331,-0.740844,0.8930173,0.1968779,0.4171143,0,0,0,0,0,0,0,0,0,0,0,0,0,0,-0.02952694,0.01176464,0.03644732,0.007324219,-1.124756,-0.1563721,0,0,0,0,0,0
2.686664,-0.7250457,0.9093114,0.2454235,0.4666503,0,0,0,0,0,0,0,0,0,0,0,0,0,0,-0.05098495,0.01249631,0.04673621,-0.002807617,-1.131836,-0.1643066,0,0,0,0,0,0
2.689998,-0.7086892,0.9168916,0.3038206,0.525431,0,0,0,0,0,0,0,0,0,0,0,0,0,0,-0.07222281,0.01174558,0.05298005,0.0201416,-1.143921,-0.1542969,0,0,0,0,0,0
2.693331,-0.7086892,0.9168916,0.3038206,0.525431,0,0,0,0,0,0,0,0,0,0,0,0,0,0,0,0,0,0.0201416,-1.143921,-0.1542969,0,0,0,0,0,0
2.696664,-0.7014025,0.9338674,0.3634724,0.5837587,0,0,0,0,0,0,0,0,0,0,0,0,0,0,0,0,0,0.01989746,-1.144043,-0.1604004,0,0,0,0,0,0
2.699998,-0.6850963,0.9415066,0.4160276,0.6409074,0,0,0,0,0,0,0,0,0,0,0,0,0,0,0,0,0,-0.002563477,-1.139771,-0.1567383,0,0,0,0,0,0
2.703331,-0.6693956,0.9579972,0.4779029,0.7072963,0,0,0,0,0,0,0,0,0,0,0,1,0,0,0,0,0,-0.0213623,-1.158325,-0.1279297,0,0,0,0,0,0
2.706664,-0.6531526,0.965704,0.5223886,0.7545612,0,0,0,0,0,0,0,0,0,0,0,1,0,0,0,0,0,-0.02282715,-1.177734,-0.1162109,0,0,0,0,0,0
2.709998,-0.6369415,0.9734389,0.5766772,0.8199016,0,0,0,0,0,0,0,0,0,0,0,1,0,0,0,0,0,-0.009765625,-1.182007,-0.1202393,0,0,0,0,0,0
2.713331,-0.6129544,0.9895408,0.6227472,0.8845389,0,0,0,0,0,0,0,0,0,0,0,1,0,0,0,0,0,-0.008911133,-1.149658,-0.1362305,0,0,0,0,0,0
2.716664,-0.5968135,0.9973595,0.6502753,0.9215559,0,0,0,0,0,0,0,0,0,0,0,1,0,0,0,0,0,-0.1062012,-1.052124,-0.02380371,0,0,0,0,0,0
2.719998,-0.5806994,1,0.6502753,0.9215559,0,0,0,0,0,0,0,0,0,0,0,1,0,0,0,0,0,-0.2227783,-0.8261719,-0.05065918,0,0,0,0,0,0
2.723331,-0.5646105,1,0.6508609,0.9303717,0,0,0,0,0,0,0,0,0,0,0,1,0,0,0,0,0,-0.2261963,-0.9399414,-0.1662598,0,0,0,0,0,0
2.726664,-0.5563178,1,0.6508609,0.9303717,0,0,0,0,0,0,0,0,0,0,0,1,0,0,-0.1711855,0.06847422,0.01749341,-0.1629639,-1.028442,-0.09460449,0,0,0,0,0,0
2.729998,-0.540269,1,0.6430523,0.9386168,0,0,0,0,0,0,0,0,0,0,0,1,0,0,-0.1711995,0.07722721,0.01574535,-0.05480957,-0.9897461,-0.1738281,0,0,0,0,0,0
2.733331,-0.5320019,1,0.6274477,0.9551592,0,0,0,0,0,0,0,0,0,0,0,1,0,0,-0.1570926,0.06689698,0.009919208,-0.004516602,-0.9509277,-0.319458,0,0,0,0,0,0
2.736664,-0.5320019,1,0.6274477,0.9551592,0,0,0,0,0,0,0,0,0,0,0,1,0,0,0,0,0,-0.004516602,-0.9509277,-0.319458,0,0,0,0,0,0
2.739998,-0.5154955,1,0.6112997,0.9628969,0,0,0,0,0,0,0,0,0,0,0,1,0,0,0,0,0,0.0222168,-0.9066162,-0.4459229,0,0,0,0,0,0
2.743331,-0.5154955,1,0.5874074,0.9790122,0,0,0,0,0,0,0,0,0,0,0,1,0,0,0,0,0,0.08508301,-0.8831787,-0.5222168,0,0,0,0,0,0
2.746664,-0.5072563,1,0.5718616,0.995759,0,0,0,0,0,0,0,0,0,0,0,1,0,0,0,0,0,0.1202393,-0.8730469,-0.5874023,0,0,0,0,0,0
2.749998,-0.5072563,1,0.547518,1,0,0,0,0,0,0,0,0,0,0,0,1,0,0,0,0,0,0.1739502,-0.8474121,-0.6635742,0,0,0,0,0,0
2.753331,-0.4990265,1,0.5232409,1,0,0,0,0,0,0,0,0,0,0,0,1,0,0,0,0,0,0.2303467,-0.819458,-0.6976318,0,0,0,0,0,0
2.756664,-0.4990265,1,0.5149953,1,0,0,0,0,0,0,0,0,0,0,0,1,0,0,0,0,0,0.2418213,-0.7821045,-0.6740723,0,0,0,0,0,0
2.759998,-0.4990265,1,0.4990265,1,0,0,0,0,0,0,0,0,0,0,0,1,0,0,0,0,0,0.2185059,-0.7875977,-0.612793,0,0,0,0,0,0
2.763331,-0.4990265,1,0.4825947,1,0,0,0,0,0,0,0,0,0,0,0,1,0,0,0,0,0,0.1943359,-0.8189697,-0.5541992,0,0,0,0,0,0
2.766664,-0.4990265,1,0.4743927,1,0,0,0,0,0,0,0,0,0,0,0,1,0,0,-0.05797817,-0.09046594,-0.05522921,0.1936035,-0.8256836,-0.4970703,0,0,0,0,0,0
2.769998,-0.4990265,1,0.4580168,1,0,0,0,0,0,0,0,0,0,0,0,1,0,0,0,0,0,0.1551514,-0.7828369,-0.4505615,0,0,0,0,0,0
2.773331,-0.5072563,1,0.4253754,1,0,0,0,0,0,0,0,0,0,0,0,1,0,0,0,0,0,0.1152344,-0.7764893,-0.4024658,0,0,0,0,0,0
2.776664,-0.5072563,1,0.3731085,0.9386625,0,0,0,0,0,0,0,0,0,0,0,1,0,0,0,0,0,0.08276367,-0.7635498,-0.3651123,0,0,0,0,0,0
2.779998,-0.5154955,1,0.2952533,0.8167396,0,0,0,0,0,0,0,0,0,0,0,1,0,0,0,0,0,0.06762695,-0.7242432,-0.3789063,0,0,0,0,0,0
2.783331,-0.5320019,1,0.1864345,0.6470372,0,0,0,0,0,0,0,0,0,0,0,1,0,0,0,0,0,0.07019043,-0.7336426,-0.3327637,0,0,0,0,0,0
2.786664,-0.540269,1,0.06976105,0.4484639,0,0,0,0,0,0,0,0,0,0,0,1,0,0,0,0,0,0.0970459,-0.8026123,-0.2669678,0,0,0,0,0,0
2.789998,-0.5568311,1,-0.03782027,0.2092722,0,0,0,0,0,0,0,0,0,0,0,1,0,0,0,0,0,0.1170654,-0.8417969,-0.2174072,0,0,0,0,0,0
2.793331,-0.5734303,1,-0.06152136,0.05007552,0,0,0,0,0,0,0,0,0,0,0,1,0,0,0,0,0,0.118042,-0.9365234,-0.131958,0,0,0,0,0,0
2.796664,-0.5812241,1,-0.1159605,0.01656578,0,0,0,0,0,0,0,0,0,0,0,1,0,0,0,0,0,0.04772949,-1.036865,-0.0222168,0,0,0,0,0,0
2.799998,-0.5973468,1,-0.1789112,-0.006970565,0,0,0,0,0,0,0,0,0,0,0,0,0,0,0,0,0,-0.04467773,-1.073975,-0.02612305,0,0,0,0,0,0
2.803331,-0.6051498,0.9978961,-0.2639819,-0.04168135,0,0,0,0,0,0,0,0,0,0,0,0,0,0,0.07072337,0.01774332,0.06222657,-0.08483887,-1.085083,-0.09753418,0,0,0,0,0,0
2.806664,-0.6051498,0.9978961,-0.3323455,-0.0884222,0,0,0,0,0,0,0,0,0,0,0,0,0,0,0.05797817,0.02823937,0.07522168,-0.08972168,-1.07251,-0.1552734,0,0,0,0,0,0
2.809998,-0.6213085,0.9900852,-0.4008897,-0.1401484,0,0,0,0,0,0,0,0,0,0,0,0,0,0,0.04729341,0.02999095,0.07566946,-0.06188965,-1.061523,-0.1773682,0,0,0,0,0,0
2.813331,-0.6213085,0.9900852,-0.4008897,-0.1401484,0,0,0,0,0,0,0,0,0,0,0,0,0,0,0,0,0,-0.06188965,-1.061523,-0.1773682,0,0,0,0,0,0
2.816664,-0.6291237,0.9817535,-0.4708523,-0.2096495,0,0,0,0,0,0,0,0,0,0,0,0,0,0,0,0,0,0.02978516,-1.15625,-0.2762451,0,0,0,0,0,0
2.819998,-0.6374958,0.9823048,-0.5394447,-0.2750811,0,0,0,0,0,0,0,0,0,0,0,0,0,0,0,0,0,0.01904297,-1.031006,-0.1843262,0,0,0,0,0,0
2.823331,-0.6447625,0.9651414,-0.5987412,-0.3416131,0,0,0,0,0,0,0,0,0,0,0,0,0,0,0,0,0,0.01159668,-0.9920654,-0.2261963,0,0,0,0,0,0
2.826664,-0.6531526,0.965704,-0.6480708,-0.4008299,0,0,0,0,0,0,0,0,0,0,0,0,0,0,0,0,0,0.005493164,-0.918335,-0.2540283,0,0,0,0,0,0
2.829998,-0.6604159,0.9485974,-0.7043715,-0.4454674,0,0,0,0,0,0,0,0,0,0,0,0,0,0,0,0,0,-0.01013184,-0.9238281,-0.2719727,0,0,0,0,0,0
2.833331,-0.6766679,0.9409287,-0.7335399,-0.4800654,0,0,0,0,0,0,0,0,0,0,0,0,0,0,0,0,0,0.004760742,-0.9763184,-0.2906494,0,0,0,0,0,0
2.836664,-0.6755022,0.9233196,-0.7707087,-0.507351,0,0,0,0,0,0,0,0,0,0,0,0,0,0,0,0,0,0.02722168,-1.028564,-0.2977295,0,0,0,0,0,0
2.839998,-0.6833416,0.9151183,-0.8085124,-0.5429141,0,0,0,0,0,0,0,0,0,0,0,0,0,0,0,0,0,0.04736328,-1.040039,-0.2828369,0,0,0,0,0,0
2.843331,-0.6911871,0.9069334,-0.8449888,-0.5620158,0,0,0,0,0,0,0,0,0,0,0,0,0,0,0,0,0,0.05065918,-1.023438,-0.2617188,0,0,0,0,0,0
2.846664,-0.6899853,0.8894031,-0.8644772,-0.5881603,0,0,0,0,0,0,0,0,0,0,0,0,0,0,0,0,0,0.03015137,-0.9959717,-0.2513428,0,0,0,0,0,0
2.849998,-0.698437,0.8900082,-0.8833208,-0.6060452,0,0,0,0,0,0,0,0,0,0,0,0,0,0,-0.03206441,-0.008073773,0.03275645,0.02612305,-1.004395,-0.2352295,0,0,0,0,0,0
2.853331,-0.69783,0.8812595,-0.8833208,-0.6060452,0,0,0,0,0,0,0,0,0,0,0,0,0,0,-0.03673916,-0.01099676,0.04123783,0.002441406,-1.062988,-0.2486572,0,0,0,0,0,0
2.856664,-0.7062927,0.8818683,-0.9003575,-0.5989163,0,0,0,0,0,0,0,0,0,0,0,0,0,0,-0.04573278,-0.0127452,0.04948137,-0.03466797,-1.088135,-0.2548828,0,0,0,0,0,0
2.859998,-0.7062927,0.8818683,-0.9003575,-0.5989163,0,0,0,0,0,0,0,0,0,0,0,0,0,0,0,0,0,-0.03466797,-1.088135,-0.2548828,0,0,0,0,0,0
2.863331,-0.7062927,0.8818683,-0.9168625,-0.583458,0,0,0,0,0,0,0,0,0,0,0,0,0,0,0,0,0,-0.04968262,-1.107544,-0.2412109,0,0,0,0,0,0
2.866664,-0.7062927,0.8818683,-0.9328762,-0.5597257,0,0,0,0,0,0,0,0,0,0,0,0,0,0,0,0,0,-0.02478027,-1.106567,-0.2523193,0,0,0,0,0,0
2.869998,-0.7062927,0.8818683,-0.9484507,-0.527799,0,0,0,0,0,0,0,0,0,0,0,0,0,0,0,0,0,-0.02050781,-1.072632,-0.2757568,0,0,0,0,0,0
2.873331,-0.7062927,0.8818683,-0.9641817,-0.4959782,0,0,0,0,0,0,0,0,0,0,0,1,0,0,0,0,0,-0.04040527,-1.062012,-0.272583,0,0,0,0,0,0
2.876664,-0.7062927,0.8818683,-0.9795809,-0.4560802,0,0,0,0,0,0,0,0,0,0,0,1,0,0,0,0,0,-0.03662109,-1.061768,-0.260498,0,0,0,0,0,0
2.879997,-0.7062927,0.8818683,-0.9952164,-0.4163256,0,0,0,0,0,0,0,0,0,0,0,1,0,0,0,0,0,-0.0078125,-1.036377,-0.2819824,0,0,0,0,0,0
2.883331,-0.7062927,0.8818683,-1,-0.3605264,0,0,0,0,0,0,0,0,0,0,0,1,0,0,0,0,0,-0.002929688,-0.9858398,-0.3067627,0,0,0,0,0,0
2.886664,-0.7062927,0.8818683,-1,-0.3042357,0,0,0,0,0,0,0,0,0,0,0,1,0,0,0,0,0,-0.1417236,-0.8275146,-0.07678223,0,0,0,0,0,0
2.889997,-0.7062927,0.8818683,-1,-0.2483314,0,0,0,0,0,0,0,0,0,0,0,1,0,0,0,0,0,-0.2008057,-0.8536377,-0.27771,0,0,0,0,0,0
2.893331,-0.7062927,0.8818683,-1,-0.1927661,0,0,0,0,0,0,0,0,0,0,0,1,0,0,0,0,0,-0.1107178,-1.014648,-0.2155762,0,0,0,0,0,0
2.896664,-0.7062927,0.8818683,-1,-0.1296006,0,0,0,0,0,0,0,0,0,0,0,1,0,0,-0.06722469,0.02449078,0.01649379,0.01489258,-0.9910889,-0.2990723,0,0,0,0,0,0
2.899997,-0.7056823,0.8731322,-1,-0.05884144,0,0,0,0,0,0,0,0,0,0,0,1,0,0,-0.06097704,0.0169936,0.01849304,0.06323242,-0.9564209,-0.4429932,0,0,0,0,0,0
2.903331,-0.7056823,0.8731322,-1,0,0,0,0,0,0,0,0,0,0,0,0,1,0,0,-0.05273015,0.002249153,0.01524426,0.06408691,-0.9299316,-0.5184326,0,0,0,0,0,0
2.906664,-0.7056823,0.8731322,-1,0,0,0,0,0,0,0,0,0,0,0,0,1,0,0,0,0,0,0.06408691,-0.9299316,-0.5184326,0,0,0,0,0,0
2.909997,-0.7056823,0.8731322,-1,0.08240198,0,0,0,0,0,0,0,0,0,0,0,1,0,0,0,0,0,0.05664063,-0.9038086,-0.5285645,0,0,0,0,0,0
2.913331,-0.7056823,0.8731322,-1,0.1453634,0,0,0,0,0,0,0,0,0,0,0,1,0,0,0,0,0,0.05102539,-0.8869629,-0.5319824,0,0,0,0,0,0
2.916664,-0.7141563,0.8737444,-1,0.2006854,0,0,0,0,0,0,0,0,0,0,0,1,0,0,0,0,0,0.06835938,-0.885498,-0.5339355,0,0,0,0,0,0
2.919997,-0.7141563,0.8737444,-1,0.2244794,0,0,0,0,0,0,0,0,0,0,0,1,0,0,0,0,0,0.1030273,-0.8789063,-0.5091553,0,0,0,0,0,0
2.923331,-0.7135427,0.865021,-1,0.2403741,0,0,0,0,0,0,0,0,0,0,0,1,0,0,0,0,0,0.112915,-0.8712158,-0.4293213,0,0,0,0,0,0
2.926664,-0.7135427,0.865021,-1,0.2403741,0,0,0,0,0,0,0,0,0,0,0,1,0,0,0,0,0,0.09619141,-0.866333,-0.3552246,0,0,0,0,0,0
2.929997,-0.7135427,0.865021,-1,0.2403741,0,0,0,0,0,0,0,0,0,0,0,1,0,0,0,0,0,0.06787109,-0.8759766,-0.321167,0,0,0,0,0,0
2.933331,-0.7135427,0.865021,-1,0.2403741,0,0,0,0,0,0,0,0,0,0,0,1,0,0,0,0,0,0.0546875,-0.8798828,-0.3123779,0,0,0,0,0,0
2.936664,-0.7135427,0.865021,-1,0.2403741,0,0,0,0,0,0,0,0,0,0,0,1,0,0,0,0,0,0.05273438,-0.8831787,-0.3149414,0,0,0,0,0,0
2.939997,-0.7135427,0.865021,-1,0.2324234,0,0,0,0,0,0,0,0,0,0,0,1,0,0,-0.0004998118,-0.01899285,-0.0209921,0.06274414,-0.8867188,-0.3572998,0,0,0,0,0,0
2.943331,-0.7135427,0.865021,-1,0.2006854,0,0,0,0,0,0,0,0,0,0,0,1,0,0,0,-0.01845434,-0.02145317,0.07739258,-0.9102783,-0.4020996,0,0,0,0,0,0
2.946664,-0.7135427,0.865021,-1,0.1532514,0,0,0,0,0,0,0,0,0,0,0,1,0,0,0.002998871,-0.0209921,-0.021242,0.1014404,-0.9299316,-0.4243164,0,0,0,0,0,0
2.949997,-0.7135427,0.865021,-1,0.1532514,0,0,0,0,0,0,0,0,0,0,0,1,0,0,0,0,0,0.1014404,-0.9299316,-0.4243164,0,0,0,0,0,0
2.953331,-0.7135427,0.865021,-1,0.09812176,0,0,0,0,0,0,0,0,0,0,0,1,0,0,0,0,0,0.1119385,-0.9387207,-0.3977051,0,0,0,0,0,0
2.956664,-0.7135427,0.865021,-1,0.035298,0,0,0,0,0,0,0,0,0,0,0,1,0,0,0,0,0,0.1124268,-0.9553223,-0.373291,0,0,0,0,0,0
2.959997,-0.7135427,0.865021,-1,-0.035298,0,0,0,0,0,0,0,0,0,0,0,1,0,0,0,0,0,0.1123047,-0.9707031,-0.3548584,0,0,0,0,0,0
2.963331,-0.7135427,0.865021,-1,-0.113854,0,0,0,0,0,0,0,0,0,0,0,1,0,0,0,0,0,0.05834961,-0.932373,-0.2514648,0,0,0,0,0,0
2.966664,-0.7135427,0.865021,-1,-0.1690417,0,0,0,0,0,0,0,0,0,0,0,1,0,0,0,0,0,-0.001464844,-0.8984375,-0.2282715,0,0,0,0,0,0
2.969997,-0.7135427,0.865021,-1,-0.2244794,0,0,0,0,0,0,0,0,0,0,0,1,0,0,0,0,0,0.00378418,-0.9211426,-0.2340088,0,0,0,0,0,0
2.973331,-0.7135427,0.865021,-1,-0.2802319,0,0,0,0,0,0,0,0,0,0,0,1,0,0,0,0,0,0.002685547,-0.9178467,-0.2416992,0,0,0,0,0,0
2.976664,-0.7135427,0.865021,-1,-0.336352,0,0,0,0,0,0,0,0,0,0,0,1,0,0,0,0,0,0.02770996,-0.9233398,-0.2652588,0,0,0,0,0,0
2.979997,-0.7220283,0.8656361,-1,-0.3847782,0,0,0,0,0,0,0,0,0,0,0,1,0,0,0,0,0,0.03344727,-0.9462891,-0.2965088,0,0,0,0,0,0
2.983331,-0.7220283,0.8656361,-1,-0.4253754,0,0,0,0,0,0,0,0,0,0,0,0,0,0,0,0,0,0.03796387,-0.9871826,-0.2941895,0,0,0,0,0,0
2.986664,-0.7220283,0.8656361,-1,-0.4739094,0,0,0,0,0,0,0,0,0,0,0,0,0,0,0.0719729,0.01224539,0.07172299,0.02929688,-1.012573,-0.2844238,0,0,0,0,0,0
2.989997,-0.7220283,0.8656361,-0.9920977,-0.5139784,0,0,0,0,0,0,0,0,0,0,0,0,0,0,0.06847422,0.01074595,0.08071961,0.007080078,-1.018311,-0.2780762,0,0,0,0,0,0
2.993331,-0.7220283,0.8656361,-0.9920977,-0.5139784,0,0,0,0,0,0,0,0,0,0,0,0,0,0,0,0,0,0.007080078,-1.018311,-0.2780762,0,0,0,0,0,0
2.996664,-0.7220283,0.8656361,-0.9679267,-0.55367,0,0,0,0,0,0,0,0,0,0,0,0,0,0,0,0,0,-0.0003662109,-1.023071,-0.2514648,0,0,0,0,0,0
2.999997,-0.7220283,0.8656361,-0.9523386,-0.585748,0,0,0,0,0,0,0,0,0,0,0,0,0,0,0,0,0,0.02868652,-1.116211,-0.3553467,0,0,0,0,0,0
3.003331,-0.7220283,0.8656361,-0.9286237,-0.625725,0,0,0,0,0,0,0,0,0,0,0,0,0,0,0,0,0,-0.005371094,-0.925415,-0.2044678,0,0,0,0,0,0
3.006664,-0.7220283,0.8656361,-0.8951521,-0.648488,0,0,0,0,0,0,0,0,0,0,0,0,0,0,0,0,0,-0.02807617,-0.9176025,-0.2423096,0,0,0,0,0,0
3.009997,-0.7220283,0.8656361,-0.8794271,-0.6725031,0,0,0,0,0,0,0,0,0,0,0,0,0,0,0,0,0,-0.07226563,-0.9036865,-0.2496338,0,0,0,0,0,0
3.013331,-0.7220283,0.8656361,-0.8719043,-0.6887646,0,0,0,0,0,0,0,0,0,0,0,0,0,0,0,0,0,-0.09240723,-0.9112549,-0.2513428,0,0,0,0,0,0
3.016664,-0.7220283,0.8656361,-0.856306,-0.7129246,0,0,0,0,0,0,0,0,0,0,0,0,0,0,0,0,0,-0.08813477,-0.9393311,-0.2669678,0,0,0,0,0,0
3.019997,-0.7299091,0.8575435,-0.8401566,-0.7286666,0,0,0,0,0,0,0,0,0,0,0,0,0,0,0,0,0,-0.06762695,-0.9743652,-0.2946777,0,0,0,0,0,0
3.023331,-0.7377991,0.849466,-0.8160461,-0.7523547,0,0,0,0,0,0,0,0,0,0,0,0,0,0,0,0,0,-0.04223633,-0.9868164,-0.3168945,0,0,0,0,0,0
3.026664,-0.7542298,0.8420238,-0.7994105,-0.7596387,0,0,0,0,0,0,0,0,0,0,0,0,0,0,0,0,0,-0.02392578,-0.9667969,-0.3121338,0,0,0,0,0,0
3.029997,-0.7627706,0.8426419,-0.7834626,-0.7755088,0,0,0,0,0,0,0,0,0,0,0,0,0,0,0,0,0,-0.008300781,-0.951416,-0.302002,0,0,0,0,0,0
3.033331,-0.7707045,0.8345971,-0.7669296,-0.7828245,0,0,0,0,0,0,0,0,0,0,0,0,0,0,0,0,0,-0.0177002,-0.9238281,-0.3182373,0,0,0,0,0,0
3.036664,-0.778028,0.8179268,-0.7590014,-0.790792,0,0,0,0,0,0,0,0,0,0,0,0,0,0,0,0,0,-0.05053711,-0.8988037,-0.3232422,0,0,0,0,0,0
3.039997,-0.7859832,0.8099219,-0.7431815,-0.8067693,0,0,0,0,0,0,0,0,0,0,0,0,0,0,0.06198171,0.0009997051,0.01374594,-0.1097412,-0.9361572,-0.2924805,0,0,0,0,0,0
3.043331,-0.8025521,0.8025521,-0.7352889,-0.8147796,0,0,0,0,0,0,0,0,0,0,0,0,0,0,0.05847798,0.004748212,0.009746331,-0.121582,-1.011475,-0.2670898,0,0,0,0,0,0
3.046664,-0.8191673,0.7951917,-0.7359226,-0.8234377,0,0,0,0,0,0,0,0,0,0,0,0,0,0,0.04348363,0.008746706,0.007996988,-0.1224365,-1.080933,-0.2486572,0,0,0,0,0,0
3.049997,-0.8191673,0.7951917,-0.7359226,-0.8234377,0,0,0,0,0,0,0,0,0,0,0,0,0,0,0,0,0,-0.1224365,-1.080933,-0.2486572,0,0,0,0,0,0
3.053331,-0.8271842,0.7872236,-0.728039,-0.8314762,0,0,0,0,0,0,0,0,0,0,0,0,0,0,0,0,0,-0.08837891,-1.08606,-0.255249,0,0,0,0,0,0
3.056664,-0.8438712,0.7798811,-0.7110435,-0.8302128,0,0,0,0,0,0,0,0,0,0,0,0,0,0,0,0,0,-0.06713867,-1.058105,-0.2613525,0,0,0,0,0,0
3.059997,-0.8432577,0.771321,-0.7025614,-0.8295782,0,0,0,0,0,0,0,0,0,0,0,1,0,0,0,0,0,-0.0637207,-1.043091,-0.2436523,0,0,0,0,0,0
3.063331,-0.8426419,0.7627706,-0.6739157,-0.7842645,0,0,0,0,0,0,0,0,0,0,0,1,0,0,0,0,0,-0.0802002,-1.046875,-0.237915,0,0,0,0,0,0
3.066664,-0.8513149,0.7633857,-0.6353564,-0.72111,0,0,0,0,0,0,0,0,0,0,0,1,0,0,0,0,0,-0.07165527,-1.040894,-0.2614746,0,0,0,0,0,0
3.069997,-0.8513149,0.7633857,-0.575933,-0.6140743,0,0,0,0,0,0,0,0,0,0,0,1,0,0,0,0,0,-0.08007813,-1.018066,-0.2806396,0,0,0,0,0,0
3.073331,-0.8513149,0.7633857,-0.5128674,-0.4833498,0,0,0,0,0,0,0,0,0,0,0,1,0,0,0,0,0,-0.09863281,-0.9763184,-0.3009033,0,0,0,0,0,0
3.076664,-0.8513149,0.7633857,-0.4300014,-0.3460987,0,0,0,0,0,0,0,0,0,0,0,1,0,0,0,0,0,-0.2275391,-0.9140625,-0.08728027,0,0,0,0,0,0
3.079997,-0.8513149,0.7633857,-0.3207976,-0.1775288,0,0,0,0,0,0,0,0,0,0,0,1,0,0,0,0,0,-0.2557373,-0.9266357,-0.3117676,0,0,0,0,0,0
3.083331,-0.8513149,0.7633857,-0.2009946,-0.04218405,0,0,0,0,0,0,0,0,0,0,0,1,0,0,0,0,0,-0.1896973,-0.991333,-0.2858887,0,0,0,0,0,0
3.086664,-0.8513149,0.7633857,-0.1026312,0.0295717,0,0,0,0,0,0,0,0,0,0,0,1,0,0,0,0,0,-0.1270752,-0.9488525,-0.3394775,0,0,0,0,0,0
3.089997,-0.8513149,0.7633857,-0.06831501,0.05313389,0,0,0,0,0,0,0,0,0,0,0,1,0,0,0.02599021,0.06622507,-0.05522921,-0.07714844,-0.90625,-0.4561768,0,0,0,0,0,0
3.093331,-0.8593862,0.7554604,-0.06435483,0.07425557,0,0,0,0,0,0,0,0,0,0,0,1,0,0,0.03948513,0.05572902,-0.06397591,-0.01013184,-0.8953857,-0.5050049,0,0,0,0,0,0
3.096664,-0.8587738,0.7469335,-0.0722018,0.107327,0,0,0,0,0,0,0,0,0,0,0,1,0,0,0.04106091,0.03829275,-0.06828105,0.05737305,-0.8809814,-0.5070801,0,0,0,0,0,0
3.099997,-0.8674718,0.7475448,-0.07786916,0.1675367,0,0,0,0,0,0,0,0,0,0,0,1,0,0,0.04523665,0.02624226,-0.08547478,0.1196289,-0.8751221,-0.4832764,0,0,0,0,0,0
3.103331,-0.8674718,0.7475448,-0.07226174,0.2328434,0,0,0,0,0,0,0,0,0,0,0,1,0,0,0.04023485,0.01049605,-0.09671359,0.1799316,-0.8793945,-0.4915771,0,0,0,0,0,0
3.106664,-0.8674718,0.7475448,-0.07226174,0.2328434,0,0,0,0,0,0,0,0,0,0,0,1,0,0,0,0,0,0.1799316,-0.8793945,-0.4915771,0,0,0,0,0,0
3.109997,-0.8755721,0.7396386,-0.07446605,0.3127574,0,0,0,0,0,0,0,0,0,0,0,1,0,0,0,0,0,0.2176514,-0.8710938,-0.4906006,0,0,0,0,0,0
3.113331,-0.8749644,0.7311347,-0.06621782,0.3752343,0,0,0,0,0,0,0,0,0,0,0,1,0,0,0,0,0,0.2174072,-0.8721924,-0.4763184,0,0,0,0,0,0
3.116664,-0.8836871,0.731741,-0.04912878,0.429058,0,0,0,0,0,0,0,0,0,0,0,1,0,0,0,0,0,0.2000732,-0.8770752,-0.4521484,0,0,0,0,0,0
3.119997,-0.8836871,0.731741,-0.03702421,0.4745831,0,0,0,0,0,0,0,0,0,0,0,1,0,0,0,0,0,0.1907959,-0.8852539,-0.4406738,0,0,0,0,0,0
3.123331,-0.8836871,0.731741,-0.01706912,0.5018321,0,0,0,0,0,0,0,0,0,0,0,1,0,0,0,0,0,0.1813965,-0.8935547,-0.4342041,0,0,0,0,0,0
3.126664,-0.8836871,0.731741,0,0.5201846,0,0,0,0,0,0,0,0,0,0,0,1,0,0,0,0,0,0.1829834,-0.9049072,-0.4161377,0,0,0,0,0,0
3.129997,-0.8836871,0.731741,0.01033548,0.5202194,0,0,0,0,0,0,0,0,0,0,0,1,0,0,0,0,0,0.1707764,-0.9174805,-0.3530273,0,0,0,0,0,0
3.133331,-0.892418,0.7323431,0.03102301,0.5204972,0,0,0,0,0,0,0,0,0,0,0,1,0,0,0,0,0,0.1315918,-0.9155273,-0.3000488,0,0,0,0,0,0
3.136664,-0.892418,0.7323431,0.03792822,0.520651,0,0,0,0,0,0,0,0,0,0,0,1,0,0,0.0643595,-0.0378314,-0.06412882,0.06237793,-0.9072266,-0.2780762,0,0,0,0,0,0
3.139997,-0.892418,0.7323431,0.05128997,0.5026417,0,0,0,0,0,0,0,0,0,0,0,1,0,0,0.08271885,-0.03498682,-0.05322996,0.07800293,-0.9443359,-0.2564697,0,0,0,0,0,0
3.143331,-0.892418,0.7323431,0.04999733,0.4566424,0,0,0,0,0,0,0,0,0,0,0,1,0,0,0.09071584,-0.03148814,-0.03723598,0.08483887,-0.9470215,-0.2261963,0,0,0,0,0,0
3.146664,-0.892418,0.7323431,0.04999733,0.4566424,0,0,0,0,0,0,0,0,0,0,0,1,0,0,0,0,0,0.08483887,-0.9470215,-0.2261963,0,0,0,0,0,0
3.149997,-0.892418,0.7323431,0.04749382,0.3831168,0,0,0,0,0,0,0,0,0,0,0,1,0,0,0,0,0,0.1044922,-0.9569092,-0.2197266,0,0,0,0,0,0
3.153331,-0.8842907,0.7402433,0.04377282,0.3005733,0,0,0,0,0,0,0,0,0,0,0,1,0,0,0,0,0,0.09204102,-0.9648438,-0.217041,0,0,0,0,0,0
3.156664,-0.8761782,0.7481521,0.03628522,0.1911022,0,0,0,0,0,0,0,0,0,0,0,1,0,0,0,0,0,0.07189941,-0.994873,-0.1848145,0,0,0,0,0,0
