Timestamp, Left Stick X, Left Stick Y, Right Stick X, Right Stick Y, D-Pad Up, D-Pad Right,D-Pad Down, D-Pad Left, Button North, Button East, Button South, Button West, L1, R1, L2, R2, L3, R3,Gyroscope X, Gyroscope Y, Gyroscope Z, Accelerometer X, Accelerometer Y, Accelerometer Z,Touch 1, Touch 2, Touch 1 Pos X, Touch 1 Pos Y, Touch 2 Pos X, Touch 2 Pos Y
0,0,0,0,0,0,0,0,0,0,0,0,0,0,0,0,0,0,0,0,0,0,0.02819824,-0.9382324,-0.05322266,0,0,0,0,0,0
0.003333333,0,0,0,0,0,0,0,0,0,0,0,0,0,0,0,0,0,0,0,0,0,-0.01269531,-0.9696045,-0.1953125,0,0,0,0,0,0
0.006666667,0,0,0,0,0,0,0,0,0,0,0,0,0,0,0,0,0,0,0,0,0,0.03039551,-1.074707,-0.1166992,0,0,0,0,0,0
0.01,0,0,0,0,0,0,0,0,0,0,0,0,0,0,0,0,0,0,0,0,0,0.05224609,-1.126099,-0.01086426,0,0,0,0,0,0
0.01333333,0,0,0,0,0,0,0,0,0,0,0,0,0,0,0,0,0,0,0,0,0,0.04882813,-1.085327,0.001464844,0,0,0,0,0,0
0.01666667,0,0,0,0,0,0,0,0,0,0,0,0,0,0,0,0,0,0,0,0,0,0.01782227,-0.9902344,-0.02453613,0,0,0,0,0,0
0.02,0,0,0,0,0,0,0,0,0,0,0,0,0,0,0,0,0,0,0,0,0,-0.04602051,-0.9468994,-0.0814209,0,0,0,0,0,0
0.02333334,0,0,0,0,0,0,0,0,0,0,0,0,0,0,0,0,0,0,0,0,0,-0.02685547,-1.012695,-0.05664063,0,0,0,0,0,0
0.02666667,0,0,0,0,0,0,0,0,0,0,0,0,0,0,0,0,0,0,0,0,0,0.01123047,-1.058228,-0.08093262,0,0,0,0,0,0
0.03,0,0,0,0,0,0,0,0,0,0,0,0,0,0,0,0,0,0,0,0,0,0.02172852,-1.069214,-0.08752441,0,0,0,0,0,0
0.03333334,0,0,0,0,0,0,0,0,0,0,0,0,0,0,0,0,0,0,-0.02823937,0.001499435,0.0007497177,0.01342773,-1.041992,-0.05578613,0,0,0,0,0,0
0.03666667,0,0,0,0,0,0,0,0,0,0,0,0,0,0,0,0,0,0,-0.03023862,0.001749341,0.003248777,0.006225586,-1.011841,-0.04077148,0,0,0,0,0,0
0.04,0,0,0,0,0,0,0,0,0,0,0,0,0,0,0,0,0,0,0,0,0,0.006225586,-1.011841,-0.04077148,0,0,0,0,0,0
0.04333334,0,0,0,0,0,0,0,0,0,0,0,0,0,0,0,0,0,0,0,0,0,0.01782227,-1.003784,-0.06091309,0,0,0,0,0,0
0.04666667,0,0,0,0,0,0,0,0,0,0,0,0,0,0,0,0,0,0,0,0,0,0.02148438,-1.003052,-0.08007813,0,0,0,0,0,0
0.05,0,0,0,0,0,0,0,0,0,0,0,0,0,0,0,0,0,0,0,0,0,0.01818848,-0.9990234,-0.06091309,0,0,0,0,0,0
0.05333334,0,0,0,0,0,0,0,0,0,0,0,0,0,0,0,0,0,0,0,0,0,0.02246094,-1.00061,-0.05114746,0,0,0,0,0,0
0.05666667,0,0,0,0,0,0,0,0,0,0,0,0,0,0,0,0,0,0,0,0,0,0.02648926,-1.009033,-0.06616211,0,0,0,0,0,0
0.06000001,0,0,0,0,0,0,0,0,0,0,0,0,0,0,0,0,0,0,0,0,0,0.02709961,-1.01355,-0.08081055,0,0,0,0,0,0
0.06333334,0,0,0,0,0,0,0,0,0,0,0,0,0,0,0,0,0,0,0,0,0,0.01855469,-1.012329,-0.05981445,0,0,0,0,0,0
0.06666667,0,0,0,0,0,0,0,0,0,0,0,0,0,0,0,0,0,0,-0.05772826,0.002998871,0.003248777,0.0123291,-1.005737,-0.04333496,0,0,0,0,0,0
0.07,0,0,0,0,0,0,0,0,0,0,0,0,0,0,0,0,0,0,-0.06397591,0.00549793,0.003248777,0.01782227,-0.9986572,-0.05395508,0,0,0,0,0,0
0.07333333,0,0,0,0,0,0,0,0,0,0,0,0,0,0,0,0,0,0,-0.0625196,0.004844691,0.001153498,0.02819824,-0.9852295,-0.06677246,0,0,0,0,0,0
0.07666666,0,0,0,0,0,0,0,0,0,0,0,0,0,0,0,0,0,0,0,0,0,0.02819824,-0.9852295,-0.06677246,0,0,0,0,0,0
0.07999999,0,0,-0.02565748,0.005370171,0,0,0,0,0,0,0,0,0,0,0,0,0,0,0,0,0,0.02282715,-0.9727783,-0.05615234,0,0,0,0,0,0
0.08333332,0,0,-0.07959422,0.01302451,0,0,0,0,0,0,0,0,0,0,0,0,0,0,0,0,0,0.02478027,-0.961792,-0.04321289,0,0,0,0,0,0
0.08666665,0,0,-0.1433508,0.01869793,0,0,0,0,0,0,0,0,0,0,0,0,0,0,0,0,0,0.03186035,-0.9616699,-0.05102539,0,0,0,0,0,0
0.08999998,0,0,-0.2079887,0.02756477,0,0,0,0,0,0,0,0,0,0,0,0,0,0,0,0,0,0.03308105,-0.9588623,-0.0657959,0,0,0,0,0,0
0.09333331,0,0,-0.2905414,0.03164313,0,0,0,0,0,0,0,0,0,0,0,0,0,0,0,0,0,0.03210449,-0.9414063,-0.0579834,0,0,0,0,0,0
0.09666664,0,0,-0.3640966,0.03423131,0,0,0,0,0,0,0,0,0,0,0,0,0,0,0,0,0,0.02563477,-0.9177246,-0.04907227,0,0,0,0,0,0
0.09999997,0,0,-0.4469497,0.03641813,0,0,0,0,0,0,0,0,0,0,0,0,0,0,0,0,0,0.02441406,-0.9161377,-0.05786133,0,0,0,0,0,0
0.1033333,0,0,-0.520651,0.03792822,0,0,0,0,0,0,0,0,0,0,0,0,0,0,-0.03921547,0.003690868,-0.01822366,0.02355957,-0.9106445,-0.07214355,0,0,0,0,0,0
0.1066666,0,0,-0.5943839,0.03915104,0,0,0,0,0,0,0,0,0,0,0,0,0,0,-0.02274144,0.003498683,-0.02249153,0.01879883,-0.9085693,-0.0703125,0,0,0,0,0,0
0.11,0,0,-0.6682637,0.04747228,0,0,0,0,0,0,0,0,0,0,0,0,0,0,0.0002499059,0.003498683,-0.02574031,0.01538086,-0.9123535,-0.05993652,0,0,0,0,0,0
0.1133333,0,0,-0.6682637,0.04747228,0,0,0,0,0,0,0,0,0,0,0,0,0,0,0,0,0,0.01538086,-0.9123535,-0.05993652,0,0,0,0,0,0
0.1166666,0,0,-0.7235743,0.04823828,0,0,0,0,0,0,0,0,0,0,0,0,0,0,0,0,0,0.01367188,-0.9212646,-0.05749512,0,0,0,0,0,0
0.12,0,0,-0.7788936,0.04891603,0,0,0,0,0,0,0,0,0,0,0,0,0,0,0,0,0,0.01782227,-0.9393311,-0.06384277,0,0,0,0,0,0
0.1233333,0,0,-0.8342201,0.04951992,0,0,0,0,0,0,0,0,0,0,0,0,0,0,0,0,0,0.02185059,-0.9621582,-0.04943848,0,0,0,0,0,0
0.1266666,0,0,-0.8618855,0.04979783,0,0,0,0,0,0,0,0,0,0,0,0,0,0,0,0,0,0.015625,-0.9741211,-0.03820801,0,0,0,0,0,0
0.13,0,0,-0.9172199,0.05031164,0,0,0,0,0,0,0,0,0,0,0,0,0,0,0,0,0,0.01318359,-0.9912109,-0.04040527,0,0,0,0,0,0
0.1333333,0,0,-0.9541118,0.05062634,0,0,0,0,0,0,0,0,0,0,0,0,0,0,0,0,0,0.01159668,-1.013184,-0.05029297,0,0,0,0,0,0
0.1366666,0,0,-0.9910053,0.05092122,0,0,0,0,0,0,0,0,0,0,0,0,0,0,0,0,0,0.006225586,-1.015625,-0.05273438,0,0,0,0,0,0
0.1399999,0,0,-1,0.05099206,0,0,0,0,0,0,0,0,0,0,0,0,0,0,0,0,0,0.005126953,-1.021484,-0.05078125,0,0,0,0,0,0
0.1433333,0,0,-1,0.05099206,0,0,0,0,0,0,0,0,0,0,0,0,0,0,0,0,0,0.002075195,-1.033447,-0.05505371,0,0,0,0,0,0
0.1466666,0,0,-1,0.05099206,0,0,0,0,0,0,0,0,0,0,0,0,0,0,0,0,0,0.006835938,-1.057739,-0.05932617,0,0,0,0,0,0
0.1499999,0,0,-1,0.06669273,0,0,0,0,0,0,0,0,0,0,0,0,0,0,0.1107083,0.0002499059,-0.04773203,-0.007568359,-1.093628,-0.0489502,0,0,0,0,0,0
0.1533333,-0.01398521,0.001705513,-1,0.08240198,0,0,0,0,0,0,0,0,0,0,0,0,0,0,0.1124577,0.001749341,-0.04148438,-0.04431152,-1.106567,-0.02441406,0,0,0,0,0,0
0.1566666,-0.06279039,0.01354303,-1,0.09812176,0,0,0,0,0,0,0,0,0,0,0,0,0,0,0.1129575,0.001749341,-0.03723598,-0.05834961,-1.100586,-0.01708984,0,0,0,0,0,0
0.1599999,-0.06279039,0.01354303,-1,0.09812176,0,0,0,0,0,0,0,0,0,0,0,0,0,0,0,0,0,-0.05834961,-1.100586,-0.01708984,0,0,0,0,0,0
0.1633333,-0.1114376,0.03105639,-1,0.113854,0,0,0,0,0,0,0,0,0,0,0,0,0,0,0,0,0,-0.04321289,-1.093872,-0.02172852,0,0,0,0,0,0
0.1666666,-0.161113,0.05672994,-1,0.1217254,0,0,0,0,0,0,0,0,0,0,0,0,0,0,0,0,0,-0.01757813,-1.091064,-0.01928711,0,0,0,0,0,0
0.1699999,-0.2102744,0.08566734,-1,0.1374799,0,0,0,0,0,0,0,0,0,0,0,0,0,0,0,0,0,0.001953125,-1.08667,-0.01123047,0,0,0,0,0,0
0.1733332,-0.2602841,0.1229914,-1,0.1532514,0,0,0,0,0,0,0,0,0,0,0,0,0,0,0,0,0,0.008300781,-1.080688,-0.008544922,0,0,0,0,0,0
0.1766666,-0.2998696,0.1544783,-1,0.1769445,0,0,0,0,0,0,0,0,0,0,0,0,0,0,0,0,0,0.009765625,-1.080566,-0.01391602,0,0,0,0,0,0
0.1799999,-0.3476895,0.1881989,-1,0.2006854,0,0,0,0,0,0,0,0,0,0,0,0,0,0,0,0,0,-0.004150391,-1.074707,-0.02246094,0,0,0,0,0,0
0.1833332,-0.3792429,0.2275457,-1,0.2244794,0,0,0,0,0,0,0,0,0,0,0,0,0,0,0,0,0,-0.02270508,-1.066772,-0.01733398,0,0,0,0,0,0
0.1866666,-0.4189916,0.2691084,-0.9689015,0.2549741,0,0,0,0,0,0,0,0,0,0,0,0,0,0,0,0,0,-0.03063965,-1.050171,-0.01452637,0,0,0,0,0,0
0.1899999,-0.4403423,0.3016518,-0.934278,0.2931835,0,0,0,0,0,0,0,0,0,0,0,0,0,0,0,0,0,-0.03161621,-1.037476,-0.01855469,0,0,0,0,0,0
0.1933332,-0.4625596,0.3425059,-0.8910753,0.3307484,0,0,0,0,0,0,0,0,0,0,0,0,0,0,0,0,0,-0.03479004,-1.014771,-0.01733398,0,0,0,0,0,0
0.1966666,-0.4761129,0.3830382,-0.848486,0.3680647,0,0,0,0,0,0,0,0,0,0,0,0,0,0,0,0,0,-0.0423584,-0.9956055,-0.0144043,0,0,0,0,0,0
0.1999999,-0.4885003,0.4161299,-0.7982517,0.4126229,0,0,0,0,0,0,0,0,0,0,0,0,0,0,0,0,0,-0.06103516,-0.9855957,-0.02270508,0,0,0,0,0,0
0.2033332,-0.4933502,0.4568057,-0.7314208,0.455702,0,0,0,0,0,0,0,0,0,0,0,0,0,0,0,0,0,-0.07104492,-0.9708252,-0.04394531,0,0,0,0,0,0
0.2066665,-0.4989747,0.506367,-0.6739955,0.4912171,0,0,0,0,0,0,0,0,0,0,0,0,0,0,0.1275656,-0.002076113,-0.005074943,-0.03149414,-0.9284668,-0.03735352,0,0,0,0,0,0
0.2099999,-0.5117494,0.5491034,-0.5930426,0.5326051,0,0,0,0,0,0,0,0,0,0,0,0,0,0,0.1489439,-0.004748212,-0.001749341,-0.03430176,-0.9261475,-0.03320313,0,0,0,0,0,0
0.2133332,-0.5117494,0.5491034,-0.5930426,0.5326051,0,0,0,0,0,0,0,0,0,0,0,0,0,0,0,0,0,-0.03430176,-0.9261475,-0.03320313,0,0,0,0,0,0
0.2166665,-0.517701,0.6083932,-0.521774,0.5668193,0,0,0,0,0,0,0,0,0,0,0,0,0,0,0,0,0,-0.01171875,-0.911377,-0.01635742,0,0,0,0,0,0
0.2199999,-0.5232829,0.6684271,-0.4360501,0.6000348,0,0,0,0,0,0,0,0,0,0,0,0,0,0,0,0,0,0.02832031,-0.9122314,-0.01269531,0,0,0,0,0,0
0.2233332,-0.5284945,0.7290909,-0.3432073,0.6162971,0,0,0,0,0,0,0,0,0,0,0,0,0,0,0,0,0,0.04406738,-0.9161377,-0.004882813,0,0,0,0,0,0
0.2266665,-0.5333465,0.7902871,-0.2378171,0.6329593,0,0,0,0,0,0,0,0,0,0,0,0,0,0,0,0,0,0.04516602,-0.9177246,0.008056641,0,0,0,0,0,0
0.2299999,-0.5308444,0.8690119,-0.1349816,0.653019,0,0,0,0,0,0,0,0,0,0,0,0,0,0,0,0,0,0.046875,-0.9389648,0.01135254,0,0,0,0,0,0
0.2333332,-0.527799,0.9484507,-0.0401613,0.668138,0,0,0,0,0,0,0,0,0,0,0,0,0,0,0,0,0,0.0559082,-0.9508057,0.005737305,0,0,0,0,0,0
0.2366665,-0.5144897,1,0.0622832,0.6777877,0,0,0,0,0,0,0,0,0,0,0,0,0,0,0,0,0,0.06091309,-0.9331055,-0.003662109,0,0,0,0,0,0
0.2399998,-0.4743927,1,0.143902,0.6899916,0,0,0,0,0,0,0,0,0,0,0,0,0,0,0,0,0,0.02612305,-0.9836426,-0.01416016,0,0,0,0,0,0
0.2433332,-0.4253754,1,0.2343163,0.6955101,0,0,0,0,0,0,0,0,0,0,0,0,0,0,0.1499435,0.009746331,0.04273391,0.04589844,-0.9846191,-0.03552246,0,0,0,0,0,0
0.2466665,-0.3766855,1,0.3035607,0.700813,0,0,0,0,0,0,0,0,0,0,0,0,0,0,0.1231827,0.009457849,0.04521313,0.05078125,-1.00769,0.02111816,0,0,0,0,0,0
0.2499998,-0.3766855,1,0.3035607,0.700813,0,0,0,0,0,0,0,0,0,0,0,0,0,0,0,0,0,0.05078125,-1.00769,0.02111816,0,0,0,0,0,0
0.2533332,-0.3283107,1,0.374179,0.7067826,0,0,0,0,0,0,0,0,0,0,0,0,0,0,0,0,0,0.05004883,-0.9981689,0.02819824,0,0,0,0,0,0
0.2566665,-0.2802319,1,0.4220344,0.7109949,0,0,0,0,0,0,0,0,0,0,0,0,0,0,0,0,0,0.05371094,-0.9908447,0.008911133,0,0,0,0,0,0
0.2599998,-0.2244794,1,0.4535513,0.7051007,0,0,0,0,0,0,0,0,0,0,0,0,0,0,0,0,0,0.05029297,-0.9956055,-0.002807617,0,0,0,0,0,0
0.2633332,-0.1690417,1,0.4764194,0.6898553,0,0,0,0,0,0,0,0,0,0,0,0,0,0,0,0,0,0.0534668,-1.008667,0.01074219,0,0,0,0,0,0
0.2666665,-0.1217254,1,0.4912171,0.6739955,0,0,0,0,0,0,0,0,0,0,0,0,0,0,0,0,0,0.04870605,-1.013184,0.01452637,0,0,0,0,0,0
0.2699998,-0.07454614,1,0.5126966,0.6418202,0,0,0,0,0,0,0,0,0,0,0,0,0,0,0,0,0,0.03918457,-1.023682,0.01257324,0,0,0,0,0,0
0.2733332,-0.01960851,1,0.5185213,0.6169268,0,0,0,0,0,0,0,0,0,0,0,0,0,0,0,0,0,0.02770996,-1.03418,0.02172852,0,0,0,0,0,0
0.2766665,0.01960851,1,0.5326051,0.5930426,0,0,0,0,0,0,0,0,0,0,0,0,0,0,0,0,0,0.0177002,-1.046387,0.02758789,0,0,0,0,0,0
0.2799998,0.05884144,1,0.5475836,0.5777951,0,0,0,0,0,0,0,0,0,0,0,0,0,0,0.06689698,-0.001845434,0.04936536,0.01135254,-1.058472,0.01879883,0,0,0,0,0,0
0.2833332,0.09812176,1,0.5534171,0.5534171,0,0,0,0,0,0,0,0,0,0,0,0,0,0,0.07397215,-0.001999247,0.05273015,0.008422852,-1.065552,0.01696777,0,0,0,0,0,0
0.2866665,0.1296006,1,0.5592508,0.5292239,0,0,0,0,0,0,0,0,0,0,0,0,0,0,0.07547158,-0.001999247,0.05148061,0.007202148,-1.067383,0.03308105,0,0,0,0,0,0
0.2899998,0.1296006,1,0.5592508,0.5292239,0,0,0,0,0,0,0,0,0,0,0,0,0,0,0,0,0,0.007202148,-1.067383,0.03308105,0,0,0,0,0,0
0.2933331,0.1611441,1,0.5659601,0.513487,0,0,0,0,0,0,0,0,0,0,0,0,0,0,0,0,0,0.009643555,-1.074097,0.0480957,0,0,0,0,0,0
0.2966665,0.1927661,1,0.5718341,0.4896096,0,0,0,0,0,0,0,0,0,0,0,0,0,0,0,0,0,0.0135498,-1.087158,0.05358887,0,0,0,0,0,0
0.2999998,0.2086106,1,0.5692222,0.4650508,0,0,0,0,0,0,0,0,0,0,0,0,0,0,0,0,0,0.01379395,-1.102051,0.06420898,0,0,0,0,0,0
0.3033331,0.2403741,1,0.5674663,0.4487805,0,0,0,0,0,0,0,0,0,0,0,0,0,0,0,0,0,0.01525879,-1.114136,0.07458496,0,0,0,0,0,0
0.3066665,0.2642672,1,0.5648166,0.4245353,0,0,0,0,0,0,0,0,0,0,0,0,0,0,0,0,0,0.01245117,-1.128296,0.0880127,0,0,0,0,0,0
0.3099998,0.2802319,1,0.5621555,0.4004898,0,0,0,0,0,0,0,0,0,0,0,0,0,0,0,0,0,0.008422852,-1.142944,0.0880127,0,0,0,0,0,0
0.3133331,0.3042357,1,0.5612676,0.3925205,0,0,0,0,0,0,0,0,0,0,0,0,0,0,0,0,0,0.0009765625,-1.159302,0.08679199,0,0,0,0,0,0
0.3166665,0.3202776,1,0.559493,0.3766522,0,0,0,0,0,0,0,0,0,0,0,0,0,0,-0.0254904,0,0.01524426,-0.01000977,-1.161865,0.08605957,0,0,0,0,0,0
0.3199998,0.3202776,1,0.559493,0.3766522,0,0,0,0,0,0,0,0,0,0,0,0,0,0,0,0,0,-0.01000977,-1.161865,0.08605957,0,0,0,0,0,0
0.3233331,0.336352,1,0.5577229,0.3608796,0,0,0,0,0,0,0,0,0,0,0,0,0,0,0,0,0,-0.01086426,-1.160034,0.09082031,0,0,0,0,0,0
0.3266664,0.3605264,1,0.5550844,0.3374042,0,0,0,0,0,0,0,0,0,0,0,0,0,0,0,0,0,-0.01074219,-1.147827,0.08691406,0,0,0,0,0,0
0.3299998,0.3766855,1,0.5359266,0.3201172,0,0,0,0,0,0,0,0,0,0,0,0,0,0,0,0,0,-0.006835938,-1.137085,0.07922363,0,0,0,0,0,0
0.3333331,0.3928797,1,0.5080509,0.3019883,0,0,0,0,0,0,0,0,0,0,0,0,0,0,0,0,0,0.0004882813,-1.11084,0.07556152,0,0,0,0,0,0
0.3366664,0.4172379,1,0.4705287,0.2753464,0,0,0,0,0,0,0,0,0,0,0,0,0,0,0,0,0,0.003173828,-1.088257,0.07897949,0,0,0,0,0,0
0.3399998,0.4253754,1,0.4425956,0.257323,0,0,0,0,0,0,0,0,0,0,0,0,0,0,0,0,0,0.01257324,-1.072632,0.07910156,0,0,0,0,0,0
0.3433331,0.4416777,1,0.4038635,0.2236269,0,0,0,0,0,0,0,0,0,0,0,0,0,0,0,0,0,-0.001586914,-1.051758,0.06628418,0,0,0,0,0,0
0.3466664,0.4580168,1,0.3586367,0.2035506,0,0,0,0,0,0,0,0,0,0,0,0,0,0,0,0,0,-0.008789063,-1.03064,0.03833008,0,0,0,0,0,0
0.3499998,0.4724252,0.9805801,0.3122892,0.1762424,0,0,0,0,0,0,0,0,0,0,0,0,0,0,0,0,0,-0.01708984,-1.020874,0.02893066,0,0,0,0,0,0
0.3533331,0.4769163,0.9183595,0.2491433,0.1460495,0,0,0,0,0,0,0,0,0,0,0,0,0,0,0,0,0,-0.02062988,-1.027588,0.02563477,0,0,0,0,0,0
0.3566664,0.4816539,0.8654107,0.1964861,0.1231313,0,0,0,0,0,0,0,0,0,0,0,0,0,0,0,0,0,-0.02722168,-1.03125,0.02478027,0,0,0,0,0,0
0.3599997,0.4760255,0.7856356,0.1427505,0.0929011,0,0,0,0,0,0,0,0,0,0,0,0,0,0,-0.09296499,0.01224539,-0.01499435,-0.0345459,-1.02832,0.02636719,0,0,0,0,0,0
0.3633331,0.4697692,0.7065634,0.08246687,0.05890491,0,0,0,0,0,0,0,0,0,0,0,0,0,0,-0.08281385,0.0110726,-0.01914638,-0.0345459,-1.028076,0.03210449,0,0,0,0,0,0
0.3666664,0.4620037,0.6197612,0.0255902,0.02120331,0,0,0,0,0,0,0,0,0,0,0,0,0,0,-0.08748131,0.01024781,-0.0257445,-0.02990723,-1.019165,0.03149414,0,0,0,0,0,0
0.3699997,0.4460957,0.541951,0,0,0,0,0,0,0,0,0,0,0,0,0,0,0,0,-0.08646744,0.008496801,-0.02898908,-0.02893066,-1.008667,0.02490234,0,0,0,0,0,0
0.3733331,0.4460957,0.541951,0,0,0,0,0,0,0,0,0,0,0,0,0,0,0,0,0,0,0,-0.02893066,-1.008667,0.02490234,0,0,0,0,0,0
0.3766664,0.4141436,0.4717636,0,0,0,0,0,0,0,0,0,0,0,0,0,0,0,0,0,0,0,-0.01757813,-1.016968,0.0369873,0,0,0,0,0,0
0.3799997,0.3654403,0.4002442,0,0,0,0,0,0,0,0,0,0,0,0,0,0,0,0,0,0,0,-0.02111816,-0.9967041,0.01953125,0,0,0,0,0,0
0.3833331,0.3069363,0.3201379,0,0,0,0,0,0,0,0,0,0,0,0,0,0,0,0,0,0,0,-0.03344727,-0.9556885,0.007202148,0,0,0,0,0,0
0.3866664,0.2381022,0.2320744,0,0,0,0,0,0,0,0,0,0,0,0,0,0,0,0,0,0,0,-0.04162598,-0.9285889,-0.006591797,0,0,0,0,0,0
0.3899997,0.1577192,0.1376913,0,0,0,0,0,0,0,0,0,0,0,0,0,0,0,0,0,0,0,-0.0489502,-0.9095459,-0.01293945,0,0,0,0,0,0
0.393333,0.05838948,0.04481053,0,0,0,0,0,0,0,0,0,0,0,0,0,0,0,0,0,0,0,-0.05065918,-0.8930664,-0.0168457,0,0,0,0,0,0
0.3966664,0,0,0,0,0,0,0,0,0,0,0,0,0,0,0,0,0,0,0,0,0,-0.0279541,-0.9074707,-0.007080078,0,0,0,0,0,0
0.3999997,0,0,0,0,0,0,0,0,0,0,0,0,0,0,0,0,0,0,0.001499435,-0.01849304,-0.03223786,0.03088379,-0.9477539,0.04309082,0,0,0,0,0,0
0.403333,0,0,0,0,0,0,0,0,0,0,0,0,0,0,0,0,0,0,0,0,0,0.04797363,-0.9688721,0.04052734,0,0,0,0,0,0
0.4066664,0,0,0,0,0,0,0,0,0,0,0,0,0,0,0,0,0,0,0,0,0,0.02282715,-0.9680176,0.06945801,0,0,0,0,0,0
0.4099997,0,0,0,0,0,0,0,0,0,0,0,0,0,0,0,0,0,0,0,0,0,0.01586914,-0.9671631,0.0904541,0,0,0,0,0,0
0.413333,0,0,0,0,0,0,0,0,0,0,0,0,0,0,0,0,0,0,0,0,0,-0.03125,-0.9327393,0.05895996,0,0,0,0,0,0
0.4166664,0,0,0,0,0,0,0,0,0,0,0,0,0,0,0,0,0,0,0,0,0,-0.008422852,-0.9377441,0.01281738,0,0,0,0,0,0
0.4199997,0,0,0,0,0,0,0,0,0,0,0,0,0,0,0,0,0,0,0,0,0,-0.006591797,-0.9742432,-0.01574707,0,0,0,0,0,0
0.423333,0,0,0,0,0,0,0,0,0,0,0,0,0,0,0,0,0,0,0,0,0,0.006347656,-1.024658,-0.007324219,0,0,0,0,0,0
0.4266663,0,0,0,0,0,0,0,0,0,0,0,0,0,0,0,0,0,0,0,0,0,0.01989746,-1.037964,-0.02209473,0,0,0,0,0,0
0.4299997,0,0,0,0,0,0,0,0,0,0,0,0,0,0,0,0,0,0,0.006226691,-0.01360647,-0.02167811,0.02172852,-1.013794,-0.01782227,0,0,0,0,0,0
0.433333,0,0,0,0,0,0,0,0,0,0,0,0,0,0,0,0,0,0,0.006248157,-0.01749484,-0.02349307,0.01696777,-1.006958,-0.003173828,0,0,0,0,0,0
0.4366663,0,0,0,0,0,0,0,0,0,0,0,0,0,0,0,0,0,0,0,0,0,0.01696777,-1.006958,-0.003173828,0,0,0,0,0,0
0.4399997,0,0,0,0,0,0,0,0,0,0,0,0,0,0,0,0,0,0,0,0,0,0.002685547,-1.006836,0.01525879,0,0,0,0,0,0
0.443333,0,0,0,0,0,0,0,0,0,0,0,0,0,0,0,0,0,0,0,0,0,0.003417969,-1.018311,0.004272461,0,0,0,0,0,0
0.4466663,0,0,0,0,0,0,0,0,0,0,0,0,0,0,0,0,0,0,0,0,0,0.008789063,-1.054321,0.006469727,0,0,0,0,0,0
0.4499997,0,0,0,0,0,0,0,0,0,0,0,0,0,0,0,0,0,0,0,0,0,0.006958008,-1.102295,0.04821777,0,0,0,0,0,0
0.453333,0,0,0,0,0,0,0,0,0,0,0,0,0,0,0,0,0,0,0,0,0,0.004394531,-1.118164,0.1047363,0,0,0,0,0,0
0.4566663,0,0,0,0,0,0,0,0,0,0,0,0,0,0,0,0,0,0,0,0,0,0.02258301,-1.093506,0.1026611,0,0,0,0,0,0
0.4599997,0,0,0,0,0,0,0,0,0,0,0,0,0,0,0,0,0,0,0,0,0,0.02734375,-1.07605,0.1009521,0,0,0,0,0,0
0.463333,0,0,0,0,0,0,0,0,0,0,0,0,0,0,0,1,0,0,0,0,0,0.02282715,-1.075806,0.1044922,0,0,0,0,0,0
0.4666663,0,0,0,0,0,0,0,0,0,0,0,0,0,0,0,1,0,0,0,0,0,0.02355957,-1.112061,0.07922363,0,0,0,0,0,0
0.4699996,0,0,0,0,0,0,0,0,0,0,0,0,0,0,0,1,0,0,0,0,0,0.03918457,-1.15625,0.0402832,0,0,0,0,0,0
0.473333,0,0,0,0,0,0,0,0,0,0,0,0,0,0,0,1,0,0,0,0,0,0.06872559,-1.14917,0.02990723,0,0,0,0,0,0
0.4766663,0,0,0,0,0,0,0,0,0,0,0,0,0,0,0,1,0,0,0,0,0,0.06567383,-1.098999,0.04821777,0,0,0,0,0,0
0.4799996,0,0,0,0,0,0,0,0,0,0,0,0,0,0,0,1,0,0,0,0,0,0.05700684,-1.040649,0.03613281,0,0,0,0,0,0
0.483333,0,0,0,0,0,0,0,0,0,0,0,0,0,0,0,1,0,0,-0.2089213,-0.006497554,0.0007497177,0.0456543,-1.004639,0.05712891,0,0,0,0,0,0
0.4866663,0,0,0,0,0,0,0,0,0,0,0,0,0,0,0,1,0,0,-0.1971758,0.003748589,-0.001999247,-0.01159668,-0.946167,0.1157227,0,0,0,0,0,0
0.4899996,0,0,0,0,0,0,0,0,0,0,0,0,0,0,0,1,0,0,-0.1700106,0.012226,-0.007381736,-0.06884766,-0.9083252,0.07800293,0,0,0,0,0,0
0.493333,0,0,0,0,0,0,0,0,0,0,0,0,0,0,0,1,0,0,0,0,0,-0.06884766,-0.9083252,0.07800293,0,0,0,0,0,0
0.4966663,0,0,0,0,0,0,0,0,0,0,0,0,0,0,0,1,0,0,0,0,0,-0.02929688,-0.9921875,0.1051025,0,0,0,0,0,0
0.4999996,0,0,0,0,0,0,0,0,0,0,0,0,0,0,0,1,0,0,0,0,0,0.05932617,-0.9824219,-0.07275391,0,0,0,0,0,0
0.503333,0,0,0,0,0,0,0,0,0,0,0,0,0,0,0,1,0,0,0,0,0,0.0645752,-0.9715576,-0.1138916,0,0,0,0,0,0
0.5066663,0,0,0,0,0,0,0,0,0,0,0,0,0,0,0,1,0,0,0,0,0,0.1020508,-0.9333496,-0.2558594,0,0,0,0,0,0
0.5099996,0,0,0,0,0,0,0,0,0,0,0,0,0,0,0,1,0,0,0,0,0,0.1220703,-0.8884277,-0.284668,0,0,0,0,0,0
0.513333,0,0,0,0,0,0,0,0,0,0,0,0,0,0,0,1,0,0,0,0,0,0.03479004,-0.9078369,-0.1870117,0,0,0,0,0,0
0.5166663,0,0,0,0,0,0,0,0,0,0,0,0,0,0,0,1,0,0,0,0,0,-0.03369141,-0.9250488,-0.09680176,0,0,0,0,0,0
0.5199996,0,0,0,0,0,0,0,0,0,0,0,0,0,0,0,1,0,0,-0.05098011,-0.024452,0.00599766,-0.03601074,-0.9348145,-0.09033203,0,0,0,0,0,0
0.523333,0,0,0,0,0,0,0,0,0,0,0,0,0,0,0,1,0,0,-0.04798193,-0.02024238,0.006997366,-0.009399414,-0.9331055,-0.1019287,0,0,0,0,0,0
0.5266663,0,0,0,0,0,0,0,0,0,0,0,0,0,0,0,1,0,0,-0.04348363,-0.01849304,0.005997742,0.01306152,-0.9362793,-0.1038818,0,0,0,0,0,0
0.5299996,0,0,0,0,0,0,0,0,0,0,0,0,0,0,0,1,0,0,-0.03345144,-0.01845597,0.004613991,0.01586914,-0.9284668,-0.1049805,0,0,0,0,0,0
0.5333329,0,0,0,0,0,0,0,0,0,0,0,0,0,0,0,1,0,0,0,0,0,0.01586914,-0.9284668,-0.1049805,0,0,0,0,0,0
0.5366663,0,0,0,0,0,0,0,0,0,0,0,0,0,0,0,1,0,0,0,0,0,0.01257324,-0.9332275,-0.09533691,0,0,0,0,0,0
0.5399996,0,0,0,0,0,0,0,0,0,0,0,0,0,0,0,1,0,0,0,0,0,0.001342773,-0.9438477,-0.06530762,0,0,0,0,0,0
0.5433329,0,0,0,0,0,0,0,0,0,0,0,0,0,0,0,1,0,0,0,0,0,-0.001220703,-0.9528809,-0.04406738,0,0,0,0,0,0
0.5466663,0,0,0,0,0,0,0,0,0,0,0,0,0,0,0,1,0,0,0,0,0,0.009887695,-0.9616699,-0.05114746,0,0,0,0,0,0
0.5499996,0,0,0,0,0,0,0,0,0,0,0,0,0,0,0,1,0,0,0,0,0,0.02185059,-0.9758301,-0.06494141,0,0,0,0,0,0
0.5533329,0,0,0,0,0,0,0,0,0,0,0,0,0,0,0,1,0,0,0,0,0,0.02209473,-0.9863281,-0.06518555,0,0,0,0,0,0
0.5566663,0,0,0,0,0,0,0,0,0,0,0,0,0,0,0,1,0,0,0,0,0,0.003173828,-0.9846191,-0.01367188,0,0,0,0,0,0
0.5599996,0,0,0,0,0,0,0,0,0,0,0,0,0,0,0,1,0,0,0,0,0,-0.01611328,-0.9630127,0.01599121,0,0,0,0,0,0
0.5633329,0,0,0,0,0,0,0,0,0,0,0,0,0,0,0,1,0,0,0,0,0,-0.01208496,-0.9698486,-0.005371094,0,0,0,0,0,0
0.5666662,0,0,0,0,0,0,0,0,0,0,0,0,0,0,0,1,0,0,0.03248777,0.001499435,-0.01199548,0.01025391,-1.021118,-0.009521484,0,0,0,0,0,0
0.5699996,0,0,0,0,0,0,0,0,0,0,0,0,0,0,0,1,0,0,0.03523673,0.002499059,-0.004498306,0.03076172,-1.050293,-0.008544922,0,0,0,0,0,0
0.5733329,0,0,0,0,0,0,0,0,0,0,0,0,0,0,0,1,0,0,0.03068034,0.002768151,0.001153396,0.03601074,-1.060425,-0.009521484,0,0,0,0,0,0
0.5766662,0,0,0,0,0,0,0,0,0,0,0,0,0,0,0,1,0,0,0,0,0,0.03601074,-1.060425,-0.009521484,0,0,0,0,0,0
0.5799996,0,0,0,0,0,0,0,0,0,0,0,0,0,0,0,1,0,0,0,0,0,0.02636719,-1.059326,-0.01904297,0,0,0,0,0,0
0.5833329,0,0,0,0,0,0,0,0,0,0,0,0,0,0,0,1,0,0,0,0,0,0.01000977,-1.066284,-0.01342773,0,0,0,0,0,0
0.5866662,0,0,0,0,0,0,0,0,0,0,0,0,0,0,0,1,0,0,0,0,0,0.0002441406,-1.070068,0.0007324219,0,0,0,0,0,0
0.5899996,0,0,0,0,0,0,0,0,0,0,0,0,0,0,0,0,0,0,0,0,0,-0.008911133,-1.091309,-0.007324219,0,0,0,0,0,0
0.5933329,0,0,0,0,0,0,0,0,0,0,0,0,0,0,0,0,0,0,0,0,0,0.009155273,-1.088013,-0.02526855,0,0,0,0,0,0
0.5966662,0,0,0,0,0,0,0,0,0,0,0,0,0,0,0,0,0,0,0,0,0,0.0177002,-1.072266,-0.02734375,0,0,0,0,0,0
0.5999995,0,0,0,0,0,0,0,0,0,0,0,0,0,0,0,0,0,0,0,0,0,0.004150391,-1.041748,-0.0402832,0,0,0,0,0,0
0.6033329,0,0,0,0,0,0,0,0,0,0,0,0,0,0,0,0,0,0,-0.02399064,0.01407143,0.005766981,-0.002685547,-1.033813,-0.05480957,0,0,0,0,0,0
0.6066662,0,0,0,0,0,0,0,0,0,0,0,0,0,0,0,0,0,0,-0.02624226,0.01449572,0.004748599,-0.009765625,-1.026001,-0.07165527,0,0,0,0,0,0
0.6099995,0,0,0,0,0,0,0,0,0,0,0,0,0,0,0,0,0,0,0,0,0,-0.009765625,-1.026001,-0.07165527,0,0,0,0,0,0
0.6133329,0,0,0,0,0,0,0,0,0,0,0,0,0,0,0,0,0,0,0,0,0,0.002441406,-1.034546,-0.07531738,0,0,0,0,0,0
0.6166662,0,0,0.02946557,-0.008908195,0,0,0,0,0,0,0,0,0,0,0,0,0,0,0,0,0,0.008789063,-1.032837,-0.07641602,0,0,0,0,0,0
0.6199995,0,0,0.06787942,-0.02262647,0,0,0,0,0,0,0,0,0,0,0,0,0,0,0,0,0,-0.009521484,-1.014648,-0.06848145,0,0,0,0,0,0
0.6233329,0,0,0.1145706,-0.03944235,0,0,0,0,0,0,0,0,0,0,0,0,0,0,0,0,0,-0.01196289,-1.028809,-0.0769043,0,0,0,0,0,0
0.6266662,0,0,0.161113,-0.05672994,0,0,0,0,0,0,0,0,0,0,0,0,0,0,0,0,0,-0.01599121,-1.019165,-0.0612793,0,0,0,0,0,0
0.6299995,0,0,0.215115,-0.06997716,0,0,0,0,0,0,0,0,0,0,0,0,0,0,0,0,0,-0.01403809,-1.00061,-0.04003906,0,0,0,0,0,0
0.6333328,0,0,0.261651,-0.08721701,0,0,0,0,0,0,0,0,0,0,0,0,0,0,0,0,0,-0.02355957,-0.9954834,-0.02685547,0,0,0,0,0,0
0.6366662,0,0,0.3160772,-0.09933856,0,0,0,0,0,0,0,0,0,0,0,0,0,0,0,0,0,-0.02331543,-0.9995117,-0.02929688,0,0,0,0,0,0
0.6399995,0,0,0.3617404,-0.1100949,0,0,0,0,0,0,0,0,0,0,0,0,0,0,0.0004998118,0.004498306,0.01049605,-0.02392578,-0.9986572,-0.04199219,0,0,0,0,0,0
0.6433328,0,0,0.4165018,-0.121343,0,0,0,0,0,0,0,0,0,0,0,0,0,0,0.001749341,0.002249153,0.009746331,-0.02160645,-1.00061,-0.02819824,0,0,0,0,0,0
0.6466662,0.007014433,-0.02742006,0.4713824,-0.1322584,0,0,0,0,0,0,0,0,0,0,0,0,0,0,0.005305622,0.001384075,0.01038057,-0.001342773,-1.006836,-0.02941895,0,0,0,0,0,0
0.6499995,0.007014433,-0.02742006,0.4713824,-0.1322584,0,0,0,0,0,0,0,0,0,0,0,0,0,0,0,0,0,-0.001342773,-1.006836,-0.02941895,0,0,0,0,0,0
0.6533328,0.01293234,-0.04675537,0.5354259,-0.1434802,0,0,0,0,0,0,0,0,0,0,0,0,0,0,0,0,0,-0.005981445,-0.9970703,-0.03686523,0,0,0,0,0,0
0.6566662,0.02114725,-0.07472026,0.6091713,-0.1622054,0,0,0,0,0,0,0,0,0,0,0,0,0,0,0,0,0,0.0007324219,-1.004272,-0.04125977,0,0,0,0,0,0
0.6599995,0.02429357,-0.09231556,0.6733673,-0.1729413,0,0,0,0,0,0,0,0,0,0,0,0,0,0,0,0,0,-0.001708984,-1.011353,-0.04003906,0,0,0,0,0,0
0.6633328,0.03377942,-0.1291566,0.7376286,-0.1834711,0,0,0,0,0,0,0,0,0,0,0,0,0,0,0,0,0,-0.01000977,-1.010986,-0.03820801,0,0,0,0,0,0
0.6666662,0.04203929,-0.1570942,0.7931883,-0.2011435,0,0,0,0,0,0,0,0,0,0,0,0,0,0,0,0,0,-0.01086426,-1.001831,-0.03283691,0,0,0,0,0,0
0.6699995,0.05045334,-0.1849956,0.8662928,-0.2040601,0,0,0,0,0,0,0,0,0,0,0,0,0,0,0,0,0,-0.01855469,-0.9959717,-0.02575684,0,0,0,0,0,0
0.6733328,0.06100943,-0.2307748,0.9309966,-0.2220369,0,0,0,0,0,0,0,0,0,0,0,0,0,0,0,0,0,0.001342773,-1.015625,-0.03466797,0,0,0,0,0,0
0.6766661,0.07042968,-0.2676328,0.9862276,-0.2318224,0,0,0,0,0,0,0,0,0,0,0,0,0,0,0,0,0,0.001464844,-1.010376,-0.02429199,0,0,0,0,0,0
0.6799995,0.07899255,-0.2954906,1,-0.2403741,0,0,0,0,0,0,0,0,0,0,0,0,0,0,0.01499802,-0.00649914,0.01024864,-0.02978516,-1.006104,-0.02233887,0,0,0,0,0,0
0.6833328,0.0884222,-0.3323455,1,-0.2403741,0,0,0,0,0,0,0,0,0,0,0,0,0,0,0.008746706,-0.005747836,0.004248401,-0.06542969,-1.022583,0.02380371,0,0,0,0,0,0
0.6866661,0.0884222,-0.3323455,1,-0.2403741,0,0,0,0,0,0,0,0,0,0,0,0,0,0,0,0,0,-0.06542969,-1.022583,0.02380371,0,0,0,0,0,0
0.6899995,0.09782433,-0.3692079,1,-0.2483314,0,0,0,0,0,0,0,0,0,0,0,0,0,0,0,0,0,-0.04089355,-1.025024,0.03125,0,0,0,0,0,0
0.6933328,0.1072042,-0.4060765,1,-0.2562958,0,0,0,0,0,0,0,0,0,0,0,0,0,0,0,0,0,-0.01025391,-1.027832,0.03149414,0,0,0,0,0,0
0.6966661,0.1091414,-0.4332585,1,-0.2562958,0,0,0,0,0,0,0,0,0,0,0,0,0,0,0,0,0,0.009399414,-1.045898,0.01257324,0,0,0,0,0,0
0.6999995,0.1246921,-0.4616979,1,-0.2642672,0,0,0,0,0,0,0,0,0,0,0,0,0,0,0,0,0,0.0246582,-1.047241,-0.006835938,0,0,0,0,0,0
0.7033328,0.1334983,-0.4894938,1,-0.2642672,0,0,0,0,0,0,0,0,0,0,0,0,0,0,0,0,0,0.01098633,-1.041992,-0.02087402,0,0,0,0,0,0
0.7066661,0.1429164,-0.5263508,1,-0.2722459,0,0,0,0,0,0,0,0,0,0,0,0,0,0,0,0,0,0.004272461,-1.037109,-0.03112793,0,0,0,0,0,0
0.7099994,0.1517693,-0.5541345,1,-0.2722459,0,0,0,0,0,0,0,0,0,0,0,0,0,0,0,0,0,-0.001953125,-1.021606,-0.03173828,0,0,0,0,0,0
0.7133328,0.1679474,-0.582456,1,-0.2722459,0,0,0,0,0,0,0,0,0,0,0,0,0,0,0,0,0,-0.01574707,-1.005737,-0.01574707,0,0,0,0,0,0
0.7166661,0.1774557,-0.6192842,1,-0.2802319,0,0,0,0,0,0,0,0,0,0,0,0,0,0,0,0,0,0.01855469,-1.024658,-0.04064941,0,0,0,0,0,0
0.7199994,0.1869392,-0.6561198,1,-0.2802319,0,0,0,0,0,0,0,0,0,0,0,0,0,0,0,0,0,0.015625,-1.007568,-0.05895996,0,0,0,0,0,0
0.7233328,0.1959201,-0.6838719,1,-0.2802319,0,0,0,0,0,0,0,0,0,0,0,0,0,0,-0.04823184,0,-0.01799322,0.01635742,-1.013062,-0.06066895,0,0,0,0,0,0
0.7266661,0.2129918,-0.7211829,1,-0.2802319,0,0,0,0,0,0,0,0,0,0,0,0,0,0,-0.04098457,-0.0004998118,-0.01624388,0.02648926,-1.013306,-0.05822754,0,0,0,0,0,0
0.7299994,0.2129918,-0.7211829,1,-0.2802319,0,0,0,0,0,0,0,0,0,0,0,0,0,0,0,0,0,0.02648926,-1.013306,-0.05822754,0,0,0,0,0,0
0.7333328,0.2301825,-0.7584702,1,-0.2802319,0,0,0,0,0,0,0,0,0,0,0,0,0,0,0,0,0,0.02954102,-1.012573,-0.06433105,0,0,0,0,0,0
0.7366661,0.2397265,-0.7952833,1,-0.2802319,0,0,0,0,0,0,0,0,0,0,0,0,0,0,0,0,0,0.02905273,-1.013672,-0.05895996,0,0,0,0,0,0
0.7399994,0.248816,-0.8230066,1,-0.2802319,0,0,0,0,0,0,0,0,0,0,0,0,0,0,0,0,0,0.03039551,-1.003296,-0.04846191,0,0,0,0,0,0
0.7433327,0.2574852,-0.8416306,1,-0.2802319,0,0,0,0,0,0,0,0,0,0,0,0,0,0,0,0,0,0.03027344,-0.9984131,-0.04602051,0,0,0,0,0,0
0.7466661,0.2661761,-0.8602501,1,-0.2802319,0,0,0,0,0,0,0,0,0,0,0,0,0,0,0,0,0,0.0291748,-1.000732,-0.04431152,0,0,0,0,0,0
0.7499994,0.2753069,-0.8879616,1,-0.2802319,0,0,0,0,0,0,0,0,0,0,0,0,0,0,0,0,0,0.0255127,-0.998291,-0.04174805,0,0,0,0,0,0
0.7533327,0.2840334,-0.9065722,1,-0.2802319,0,0,0,0,0,0,0,0,0,0,0,0,0,0,0,0,0,0.02246094,-0.9980469,-0.04064941,0,0,0,0,0,0
0.7566661,0.2923666,-0.916082,1,-0.2802319,0,0,0,0,0,0,0,0,0,0,0,0,0,0,0,0,0,0.02514648,-1.000854,-0.05078125,0,0,0,0,0,0
0.7599994,0.3011326,-0.9346844,1,-0.2802319,0,0,0,0,0,0,0,0,0,0,0,0,0,0,0,0,0,0.02575684,-0.9953613,-0.05688477,0,0,0,0,0,0
0.7633327,0.3178975,-0.9536926,1,-0.2802319,0,0,0,0,0,0,0,0,0,0,0,0,0,0,0,0,0,0.02734375,-0.9864502,-0.05725098,0,0,0,0,0,0
0.7666661,0.3267186,-0.972283,1,-0.2802319,0,0,0,0,0,0,0,0,0,0,0,0,0,0,0,0,0,0.02209473,-0.9813232,-0.0592041,0,0,0,0,0,0
0.7699994,0.3355535,-0.9908698,1,-0.2802319,0,0,0,0,0,0,0,0,0,0,0,0,0,0,0,0,0,0.02453613,-0.979126,-0.05456543,0,0,0,0,0,0
0.7733327,0.3524597,-1,1,-0.2802319,0,0,0,0,0,0,0,0,0,0,0,0,0,0,0,0,0,0.02844238,-0.9764404,-0.06005859,0,0,0,0,0,0
0.776666,0.3686016,-1,1,-0.2802319,0,0,0,0,0,0,0,0,0,0,0,0,0,0,0,0,0,0.0300293,-0.9744873,-0.05505371,0,0,0,0,0,0
0.7799994,0.3847782,-1,1,-0.2802319,0,0,0,0,0,0,0,0,0,0,0,0,0,0,0,0,0,0.02709961,-0.9768066,-0.05419922,0,0,0,0,0,0
0.7833327,0.4009901,-1,1,-0.2802319,0,0,0,0,0,0,0,0,0,0,0,0,0,0,-0.001249936,0,0.0009999491,0.02502441,-0.9810791,-0.04724121,0,0,0,0,0,0
0.786666,0.4091095,-1,1,-0.2802319,0,0,0,0,0,0,0,0,0,0,0,0,0,0,-0.001499435,-0.0007497177,0.001999247,0.02746582,-0.9880371,-0.05297852,0,0,0,0,0,0
0.7899994,0.4091095,-1,1,-0.2802319,0,0,0,0,0,0,0,0,0,0,0,0,0,0,-0.0006917936,-0.0004611957,0.001152989,0.03210449,-0.9873047,-0.05700684,0,0,0,0,0,0
0.7933327,0.4091095,-1,1,-0.2802319,0,0,0,0,0,0,0,0,0,0,0,0,0,0,0,0,0,0.03210449,-0.9873047,-0.05700684,0,0,0,0,0,0
0.796666,0.4172379,-1,1,-0.2802319,0,0,0,0,0,0,0,0,0,0,0,0,0,0,0,0,0,0.03137207,-0.9851074,-0.0559082,0,0,0,0,0,0
0.7999994,0.4253754,-1,1,-0.2802319,0,0,0,0,0,0,0,0,0,0,0,0,0,0,0,0,0,0.03149414,-0.9821777,-0.06396484,0,0,0,0,0,0
0.8033327,0.433522,-1,1,-0.2802319,0,0,0,0,0,0,0,0,0,0,0,0,0,0,0,0,0,0.03430176,-0.984375,-0.06384277,0,0,0,0,0,0
0.806666,0.4498426,-1,1,-0.2802319,0,0,0,0,0,0,0,0,0,0,0,0,0,0,0,0,0,0.03308105,-0.9866943,-0.06677246,0,0,0,0,0,0
0.8099993,0.4662001,-1,1,-0.2802319,0,0,0,0,0,0,0,0,0,0,0,0,0,0,0,0,0,0.03710938,-0.984375,-0.0657959,0,0,0,0,0,0
0.8133327,0.4825947,-1,1,-0.2802319,0,0,0,0,0,0,0,0,0,0,0,0,0,0,0,0,0,0.03625488,-0.9887695,-0.06469727,0,0,0,0,0,0
0.816666,0.4990265,-1,1,-0.2802319,0,0,0,0,0,0,0,0,0,0,0,0,0,0,0,0,0,0.03710938,-0.9885254,-0.07092285,0,0,0,0,0,0
0.8199993,0.523744,-1,1,-0.2802319,0,0,0,0,0,0,0,0,0,0,0,0,0,0,0,0,0,0.03637695,-0.9912109,-0.07373047,0,0,0,0,0,0
0.8233327,0.5480344,-1,1,-0.2802319,0,0,0,0,0,0,0,0,0,0,0,0,0,0,0,0,0,0.03295898,-0.9918213,-0.07287598,0,0,0,0,0,0
0.826666,0.5801693,-0.9962907,1,-0.2802319,0,0,0,0,0,0,0,0,0,0,0,0,0,0,0.02499059,0.004248401,0.01649379,0.02929688,-0.9888916,-0.0690918,0,0,0,0,0,0
0.8299993,0.6040648,-0.980105,1,-0.2802319,0,0,0,0,0,0,0,0,0,0,0,0,0,0,0.0256054,0.005536302,0.01730094,0.02685547,-0.9865723,-0.06982422,0,0,0,0,0,0
0.8333327,0.6040648,-0.980105,1,-0.2802319,0,0,0,0,0,0,0,0,0,0,0,0,0,0,0,0,0,0.02685547,-0.9865723,-0.06982422,0,0,0,0,0,0
0.836666,0.6280115,-0.9640176,1,-0.2802319,0,0,0,0,0,0,0,0,0,0,0,0,0,0,0,0,0,0.02954102,-0.9899902,-0.07165527,0,0,0,0,0,0
0.8399993,0.6598403,-0.9397725,1,-0.2802319,0,0,0,0,0,0,0,0,0,0,0,0,0,0,0,0,0,0.02819824,-0.9906006,-0.06652832,0,0,0,0,0,0
0.8433326,0.6833416,-0.9151183,1,-0.2802319,0,0,0,0,0,0,0,0,0,0,0,0,0,0,0,0,0,0.02746582,-0.9921875,-0.06494141,0,0,0,0,0,0
0.846666,0.7153703,-0.8912154,1,-0.2802319,0,0,0,0,0,0,0,0,0,0,0,0,0,0,0,0,0,0.03039551,-0.9975586,-0.06652832,0,0,0,0,0,0
0.8499993,0.7475448,-0.8674718,1,-0.2802319,0,0,0,0,0,0,0,0,0,0,0,0,0,0,0,0,0,0.02490234,-1.005127,-0.06152344,0,0,0,0,0,0
0.8533326,0.7707045,-0.8345971,1,-0.2722459,0,0,0,0,0,0,0,0,0,0,0,0,0,0,0,0,0,0.02697754,-1.012573,-0.06030273,0,0,0,0,0,0
0.856666,0.8025521,-0.8025521,1,-0.2642672,0,0,0,0,0,0,0,0,0,0,0,0,0,0,0,0,0,0.02844238,-1.026855,-0.05529785,0,0,0,0,0,0
0.8599993,0.8253221,-0.7615291,1,-0.2483314,0,0,0,0,0,0,0,0,0,0,0,0,0,0,0,0,0,0.02441406,-1.033936,-0.04943848,0,0,0,0,0,0
0.8633326,0.8488457,-0.72929,1,-0.2324234,0,0,0,0,0,0,0,0,0,0,0,0,0,0,0.03506324,0.01084192,0.03829275,0.02575684,-1.028564,-0.04467773,0,0,0,0,0,0
0.866666,0.8488457,-0.72929,1,-0.2324234,0,0,0,0,0,0,0,0,0,0,0,0,0,0,0,0,0,0.02575684,-1.028564,-0.04467773,0,0,0,0,0,0
0.8699993,0.8719043,-0.6887646,1,-0.2165419,0,0,0,0,0,0,0,0,0,0,0,0,0,0,0,0,0,0.01757813,-1.022583,-0.04003906,0,0,0,0,0,0
0.8733326,0.8945485,-0.6400992,1,-0.1927661,0,0,0,0,0,0,0,0,0,0,0,0,0,0,0,0,0,0.01269531,-1.021362,-0.03417969,0,0,0,0,0,0
0.8766659,0.9180321,-0.6000989,1,-0.1769445,0,0,0,0,0,0,0,0,0,0,0,0,0,0,0,0,0,0.0078125,-1.014282,-0.0300293,0,0,0,0,0,0
0.8799993,0.9317433,-0.5431865,1,-0.1611441,0,0,0,0,0,0,0,0,0,0,0,0,0,0,0,0,0,0.00378418,-1.01416,-0.02429199,0,0,0,0,0,0
0.8833326,0.9515935,-0.4382858,0.9648366,-0.1367177,0,0,0,0,0,0,0,0,0,0,0,0,0,0,0.03098833,0.01874294,0.03473692,0.006958008,-1.030029,-0.01708984,0,0,0,0,0,0
0.8866659,0.9532827,-0.309915,0.8542656,-0.126416,0,0,0,0,0,0,0,0,0,0,0,0,0,0,0,0,0,0.01428223,-1.025024,-0.01757813,0,0,0,0,0,0
0.8899993,0.9499472,-0.2384641,0.780493,-0.1168854,0,0,0,0,0,0,0,0,0,0,0,0,0,0,0,0,0,0.01269531,-1.022339,-0.01123047,0,0,0,0,0,0
0.8933326,0.9475869,-0.1754791,0.6975432,-0.1070304,0,0,0,0,0,0,0,0,0,0,0,0,0,0,0,0,0,0.01281738,-1.023315,-0.008056641,0,0,0,0,0,0
0.8966659,0.9455633,-0.09728017,0.6237947,-0.09735525,0,0,0,0,0,0,0,0,0,0,0,0,0,0,0,0,0,0.01965332,-1.020264,-0.01696777,0,0,0,0,0,0
0.8999993,0.9261961,-0.01162589,0.5310509,-0.07288935,0,0,0,0,0,0,0,0,0,0,0,0,0,0,0,0,0,0.01428223,-1.010254,-0.01904297,0,0,0,0,0,0
0.9033326,0.9081877,0.06569869,0.4201978,-0.05537491,0,0,0,0,0,0,0,0,0,0,0,0,0,0,0,0,0,0.01049805,-1.002441,-0.02392578,0,0,0,0,0,0
0.9066659,0.8914944,0.1427935,0.3001203,-0.03787926,0,0,0,0,0,0,0,0,0,0,0,0,0,0,0.03021898,0.01845434,0.01199532,0.008178711,-0.9998779,-0.0291748,0,0,0,0,0,0
0.9099993,0.8669957,0.2196389,0.1519472,-0.01498071,0,0,0,0,0,0,0,0,0,0,0,0,0,0,0.03598645,0.01874294,0.01049605,0.009765625,-0.9973145,-0.03234863,0,0,0,0,0,0
0.9133326,0.8669957,0.2196389,0.1519472,-0.01498071,0,0,0,0,0,0,0,0,0,0,0,0,0,0,0,0,0,0.009765625,-0.9973145,-0.03234863,0,0,0,0,0,0
0.9166659,0.8439005,0.2967139,0,0,0,0,0,0,0,0,0,0,0,0,0,0,0,0,0,0,0,0.01599121,-0.9935303,-0.04455566,0,0,0,0,0,0
0.9199992,0.8137122,0.3817891,0,0,0,0,0,0,0,0,0,0,0,0,0,0,0,0,0,0,0,0.05236816,-1.015869,-0.05859375,0,0,0,0,0,0
0.9233326,0.7925248,0.452319,0,0,0,0,0,0,0,0,0,0,0,0,0,0,0,0,0,0,0,0.03881836,-1.009644,-0.06665039,0,0,0,0,0,0
0.9266659,0.7713896,0.5155518,0,0,0,0,0,0,0,0,0,0,0,0,0,0,0,0,0,0,0,0.01403809,-1.01001,-0.06921387,0,0,0,0,0,0
0.9299992,0.7500398,0.5712738,0,0,0,0,0,0,0,0,0,0,0,0,0,0,0,0,0,0,0,-0.01220703,-1.012573,-0.05639648,0,0,0,0,0,0
0.9333326,0.7362275,0.6115752,0,0,0,0,0,0,0,0,0,0,0,0,0,0,0,0,0,0,0,-0.0411377,-1.004395,-0.03234863,0,0,0,0,0,0
0.9366659,0.7218187,0.6437842,0,0,0,0,0,0,0,0,0,0,0,0,0,0,0,0,0,0,0,-0.05639648,-1.022217,-0.03637695,0,0,0,0,0,0
0.9399992,0.7060775,0.6592656,0,0,0,0,0,0,0,0,0,0,0,0,0,0,0,0,0,0,0,-0.05456543,-1.059814,-0.02001953,0,0,0,0,0,0
0.9433326,0.6989441,0.6755158,0,0,0,0,0,0,0,0,0,0,0,0,0,0,0,0,0.06722469,-0.005747836,0.002748965,-0.05456543,-1.074585,-0.01538086,0,0,0,0,0,0
0.9466659,0.6818832,0.6740903,0,0,0,0,0,0,0,0,0,0,0,0,0,0,0,0,0.05282554,-0.009919208,0.002306792,-0.05334473,-1.074463,-0.002075195,0,0,0,0,0,0
0.9499992,0.6733711,0.6733711,0,0,0,0,0,0,0,0,0,0,0,0,0,0,0,0,0.04348363,-0.01149567,0.003748589,-0.05407715,-1.099365,0.05847168,0,0,0,0,0,0
0.9533325,0.6733711,0.6733711,0,0,0,0,0,0,0,0,0,0,0,0,0,0,0,0,0,0,0,-0.05407715,-1.099365,0.05847168,0,0,0,0,0,0
0.9566659,0.6648714,0.6726477,0,0,0,0,0,0,0,0,0,0,0,0,0,0,0,0,0,0,0,-0.0690918,-1.119507,0.08740234,0,0,0,0,0,0
0.9599992,0.6479105,0.6711887,0,0,0,0,0,0,0,0,0,0,0,0,0,0,0,0,0,0,0,-0.09887695,-1.108398,0.1021729,0,0,0,0,0,0
0.9633325,0.6225685,0.6689712,0,0,0,0,0,0,0,0,0,0,0,0,0,0,0,0,0,0,0,-0.1031494,-1.076782,0.09143066,0,0,0,0,0,0
0.9666659,0.6057426,0.6674744,0,0,0,0,0,0,0,0,0,0,0,0,0,0,0,0,0,0,0,-0.08935547,-1.064087,0.05407715,0,0,0,0,0,0
0.9699992,0.5782998,0.6395766,0,0,0,0,0,0,0,0,0,0,0,0,0,0,0,0,0,0,0,-0.07568359,-1.057861,0.02001953,0,0,0,0,0,0
0.9733325,0.5334331,0.601531,0,0,0,0,0,0,0,0,0,0,0,0,0,0,0,0,0,0,0,-0.06323242,-1.049927,-0.004638672,0,0,0,0,0,0
0.9766659,0.4969695,0.5642285,0,0,0,0,0,0,0,0,0,0,0,0,0,0,0,0,0,0,0,-0.05810547,-1.043335,-0.01391602,0,0,0,0,0,0
0.9799992,0.4523975,0.5259581,0,0,0,0,0,0,0,0,0,0,0,0,0,0,0,0,0,0,0,-0.04833984,-1.038696,-0.01989746,0,0,0,0,0,0
0.9833325,0.4151421,0.4801209,0,0,0,0,0,0,0,0,0,0,0,0,0,0,0,0,0,0,0,-0.03564453,-1.036133,-0.02258301,0,0,0,0,0,0
0.9866658,0.3698533,0.4332568,0,0,0,0,0,0,0,0,0,0,0,0,0,0,0,0,-0.03923523,-0.003748589,-0.0337373,-0.02661133,-1.026855,-0.02502441,0,0,0,0,0,0
0.9899992,0.3157328,0.3768424,0,0,0,0,0,0,0,0,0,0,0,0,0,0,0,0,-0.03344849,-0.003690868,-0.03414053,-0.01733398,-1.021484,-0.02185059,0,0,0,0,0,0
0.9933325,0.3157328,0.3768424,0,0,0,0,0,0,0,0,0,0,0,0,0,0,0,0,0,0,0,-0.01733398,-1.021484,-0.02185059,0,0,0,0,0,0
0.9966658,0.2695533,0.3215154,0,0,0,0,0,0,0,0,0,0,0,0,0,0,0,0,0,0,0,-0.00769043,-1.019165,-0.02233887,0,0,0,0,0,0
0.9999992,0.214436,0.2567191,0,0,0,0,0,0,0,0,0,0,0,0,0,0,0,0,0,0,0,-0.0001220703,-1.020996,-0.02624512,0,0,0,0,0,0
1.003332,0.1594174,0.1918413,0,0,0,0,0,0,0,0,0,0,0,0,0,0,0,0,0,0,0,0.008056641,-1.016846,-0.0201416,0,0,0,0,0,0
1.006666,0.1021952,0.1195901,0,0,0,0,0,0,0,0,0,0,0,0,0,0,0,0,0,0,0,0.01123047,-1.013184,-0.02038574,0,0,0,0,0,0
1.009999,0.04481053,0.05838948,0,0,0,0,0,0,0,0,0,0,0,0,0,0,0,0,0,0,0,0.01818848,-1.010742,-0.02099609,0,0,0,0,0,0
1.013332,0,0,0,0,0,0,0,0,0,0,0,0,0,0,0,0,0,0,0,0,0,0.02905273,-1.009155,-0.02258301,0,0,0,0,0,0
1.016666,0,0,0,0,0,0,0,0,0,0,0,0,0,0,0,0,0,0,0,0,0,0.04064941,-1.012817,-0.01660156,0,0,0,0,0,0
1.019999,0,0,0,0,0,0,0,0,0,0,0,0,0,0,0,0,0,0,0,0,0,0.05810547,-1.038452,0.01013184,0,0,0,0,0,0
1.023332,0,0,0,0,0,0,0,0,0,0,0,0,0,0,0,0,0,0,-0.03623636,-0.001999247,-0.02199172,0.05273438,-1.054688,0.02954102,0,0,0,0,0,0
1.026666,0,0,0,0,0,0,0,0,0,0,0,0,0,0,0,0,0,0,-0.04898156,-0.002499059,-0.01649379,0.04003906,-1.050415,0.02355957,0,0,0,0,0,0
1.029999,0,0,0,0,0,0,0,0,0,0,0,0,0,0,0,0,0,0,-0.0544403,-0.002076113,-0.01199532,0.02783203,-1.036011,0.01586914,0,0,0,0,0,0
1.033332,0,0,0,0,0,0,0,0,0,0,0,0,0,0,0,0,0,0,0,0,0,0.02783203,-1.036011,0.01586914,0,0,0,0,0,0
1.036666,0,0,0,0,0,0,0,0,0,0,0,0,0,0,0,0,0,0,0,0,0,0.01098633,-1.032959,0.006835938,0,0,0,0,0,0
1.039999,0,0,0,0,0,0,0,0,0,0,0,0,0,0,0,0,0,0,0,0,0,-0.002807617,-1.026245,-0.0135498,0,0,0,0,0,0
1.043332,0,0,0,0,0,0,0,0,0,0,0,0,0,0,0,0,0,0,0,0,0,-0.0008544922,-1.026123,-0.02990723,0,0,0,0,0,0
1.046666,0,0,0,0,0,0,0,0,0,0,0,0,0,0,0,0,0,0,0,0,0,0.0004882813,-1.016724,-0.03820801,0,0,0,0,0,0
1.049999,0,0,0,0,0,0,0,0,0,0,0,0,0,0,0,0,0,0,0,0,0,0.002563477,-1.007813,-0.04541016,0,0,0,0,0,0
1.053332,0,0,0,0,0,0,0,0,0,0,0,0,0,0,0,0,0,0,0,0,0,0.0004882813,-0.9957275,-0.05187988,0,0,0,0,0,0
1.056666,0,0,0,0,0,0,0,0,0,0,0,0,0,0,0,0,0,0,0,0,0,0.002319336,-0.9854736,-0.0625,0,0,0,0,0,0
1.059999,0,0,0,0,0,0,0,0,0,0,0,0,0,0,0,0,0,0,0,0,0,0.004394531,-0.9782715,-0.06225586,0,0,0,0,0,0
1.063332,0,0,0,0,0,0,0,0,0,0,0,0,0,0,0,0,0,0,0,0,0,0.002929688,-0.9689941,-0.06140137,0,0,0,0,0,0
1.066666,0,0,0,0,0,0,0,0,0,0,0,0,0,0,0,0,0,0,0,0,0,0.003173828,-0.9650879,-0.06567383,0,0,0,0,0,0
1.069999,0,0,0,0,0,0,0,0,0,0,0,0,0,0,0,0,0,0,-0.05472939,-0.0007497177,-0.004248401,0.002685547,-0.9609375,-0.07299805,0,0,0,0,0,0
1.073332,0,0,0,0,0,0,0,0,0,0,0,0,0,0,0,0,0,0,-0.04748212,-0.001249529,-0.004498306,0.002807617,-0.9604492,-0.07348633,0,0,0,0,0,0
1.076666,0,0,0,0,0,0,0,0,0,0,0,0,0,0,0,0,0,0,0,0,0,0.002807617,-0.9604492,-0.07348633,0,0,0,0,0,0
1.079999,0,0,0,0,0,0,0,0,0,0,0,0,0,0,0,0,0,0,0,0,0,0.005371094,-0.9602051,-0.07299805,0,0,0,0,0,0
1.083332,0,0,0,0,0,0,0,0,0,0,0,0,0,0,0,0,0,0,0,0,0,0.003417969,-0.9632568,-0.07470703,0,0,0,0,0,0
1.086666,0,0,0,0,0,0,0,0,0,0,0,0,0,0,0,0,0,0,0,0,0,0.004882813,-0.967041,-0.08093262,0,0,0,0,0,0
1.089999,0,0,0,0,0,0,0,0,0,0,0,0,0,0,0,0,0,0,0,0,0,0.005859375,-0.9724121,-0.08557129,0,0,0,0,0,0
1.093332,0,0,0,0,0,0,0,0,0,0,0,0,0,0,0,0,0,0,0,0,0,0.007080078,-0.9718018,-0.07946777,0,0,0,0,0,0
1.096666,0,0,0,0,0,0,0,0,0,0,0,0,0,0,0,0,0,0,0,0,0,0.005615234,-0.9768066,-0.08325195,0,0,0,0,0,0
1.099999,0,0,0,0,0,0,0,0,0,0,0,0,0,0,0,0,0,0,0,0,0,0.007080078,-0.9794922,-0.08068848,0,0,0,0,0,0
1.103332,0,0,0,0,0,0,0,0,0,0,0,0,0,0,0,0,0,0,0,0,0,0.008789063,-0.9805908,-0.0793457,0,0,0,0,0,0
1.106666,0,0,0,0,0,0,0,0,0,0,0,0,0,0,0,0,0,0,0.001249529,0.0002499059,-0.002249153,0.00793457,-0.9842529,-0.07458496,0,0,0,0,0,0
1.109999,0,0,0,0,0,0,0,0,0,0,0,0,0,0,0,0,0,0,0.004998118,0,-0.001499435,0.0111084,-0.9890137,-0.07104492,0,0,0,0,0,0
1.113332,0,0,0,0,0,0,0,0,0,0,0,0,0,0,0,0,0,0,0.005536302,-0.0002306792,0,0.007446289,-0.9968262,-0.06433105,0,0,0,0,0,0
1.116666,0,0,0,0,0,0,0,0,0,0,0,0,0,0,0,0,0,0,0,0,0,0.007446289,-0.9968262,-0.06433105,0,0,0,0,0,0
1.119999,0,0,0,0,0,0,0,0,0,0,0,0,0,0,0,0,0,0,0,0,0,0.006103516,-1.007446,-0.06054688,0,0,0,0,0,0
1.123332,0,0,0,0,0,0,0,0,0,0,0,0,0,0,0,0,0,0,0,0,0,0.01123047,-1.011475,-0.05310059,0,0,0,0,0,0
1.126666,0,0,0,0,0,0,0,0,0,0,0,0,0,0,0,0,0,0,0,0,0,0.01330566,-1.013184,-0.05395508,0,0,0,0,0,0
1.129999,0,0,0,0,0,0,0,0,0,0,0,0,0,0,0,0,0,0,0,0,0,0.01574707,-1.011841,-0.04858398,0,0,0,0,0,0
1.133332,0,0,0,0,0,0,0,0,0,0,0,0,0,0,0,0,0,0,0,0,0,0.01940918,-1.011719,-0.0489502,0,0,0,0,0,0
1.136666,0,0,0,0,0,0,0,0,0,0,0,0,0,0,0,0,0,0,0,0,0,0.02075195,-1.00708,-0.04711914,0,0,0,0,0,0
1.139999,0,0,0,0,0,0,0,0,0,0,0,0,0,0,0,0,0,0,0,0,0,0.02209473,-1.00769,-0.04650879,0,0,0,0,0,0
1.143332,0,0,0,0,0,0,0,0,0,0,0,0,0,0,0,0,0,0,0.009746331,0.003248777,0.01624388,0.02478027,-1.003662,-0.04138184,0,0,0,0,0,0
1.146666,0,0,0,0,0,0,0,0,0,0,0,0,0,0,0,0,0,0,0.0127452,0.005997742,0.01924275,0.02478027,-1.000488,-0.03491211,0,0,0,0,0,0
1.149999,0,0,0,0,0,0,0,0,0,0,0,0,0,0,0,0,0,0,0,0,0,0.02478027,-1.000488,-0.03491211,0,0,0,0,0,0
1.153332,0,0,0,0,0,0,0,0,0,0,0,0,0,0,0,0,0,0,0,0,0,0.0291748,-0.9995117,-0.05078125,0,0,0,0,0,0
1.156666,0,0,0,0,0,0,0,0,0,0,0,0,0,0,0,0,0,0,0,0,0,0.02978516,-0.9971924,-0.05627441,0,0,0,0,0,0
1.159999,0,0,0,0,0,0,0,0,0,0,0,0,0,0,0,0,0,0,0,0,0,0.02929688,-0.994873,-0.05383301,0,0,0,0,0,0
1.163332,0,0,0,0,0,0,0,0,0,0,0,0,0,0,0,0,0,0,0,0,0,0.0267334,-0.9924316,-0.05651855,0,0,0,0,0,0
1.166666,0,0,0,0,0,0,0,0,0,0,0,0,0,0,0,0,0,0,0,0,0,0.02514648,-0.989624,-0.05053711,0,0,0,0,0,0
1.169999,0,0,0,0,0,0,0,0,0,0,0,0,0,0,0,0,0,0,0,0,0,0.02038574,-0.996582,-0.04077148,0,0,0,0,0,0
1.173332,0,0,0,0,0,0,0,0,0,0,0,0,0,0,0,0,0,0,0,0,0,0.02087402,-0.9967041,-0.03894043,0,0,0,0,0,0
1.176666,0,0,0,0,0,0,0,0,0,0,0,0,0,0,0,0,0,0,0,0,0,0.02233887,-0.9984131,-0.04296875,0,0,0,0,0,0
1.179999,0,0,0,0,0,0,0,0,0,0,0,0,0,0,0,0,0,0,0,0,0,0.02624512,-0.9998779,-0.0456543,0,0,0,0,0,0
1.183332,0,0,0,0,0,0,0,0,0,0,0,0,0,0,0,0,0,0,0,0,0,0.02087402,-0.9959717,-0.04370117,0,0,0,0,0,0
1.186666,0,0,0,0,0,0,0,0,0,0,0,0,0,0,0,0,0,0,0.03690867,0.0133794,0.03344849,0.01647949,-0.996582,-0.04541016,0,0,0,0,0,0
1.189999,0,0,0,0,0,0,0,0,0,0,0,0,0,0,0,0,0,0,0.04373353,0.01424464,0.03598645,0.0135498,-0.9935303,-0.04699707,0,0,0,0,0,0
1.193332,0,0,0,0,0,0,0,0,0,0,0,0,0,0,0,0,0,0,0,0,0,0.0135498,-0.9935303,-0.04699707,0,0,0,0,0,0
1.196666,0,0,0,0,0,0,0,0,0,0,0,0,0,0,0,0,0,0,0,0,0,0.01037598,-0.9934082,-0.05065918,0,0,0,0,0,0
1.199999,0,0,0,0,0,0,0,0,0,0,0,0,0,0,0,0,0,0,0,0,0,0.007446289,-0.9919434,-0.04919434,0,0,0,0,0,0
1.203332,0,0,0,0,0,0,0,0,0,0,0,0,0,0,0,0,0,0,0,0,0,0.005126953,-0.9935303,-0.04577637,0,0,0,0,0,0
1.206666,0,0,0,0,0,0,0,0,0,0,0,0,0,0,0,0,0,0,0,0,0,0.001342773,-0.9954834,-0.04663086,0,0,0,0,0,0
1.209999,0,0,0,0,0,0,0,0,0,0,0,0,0,0,0,0,0,0,0,0,0,0.0004882813,-0.9951172,-0.04443359,0,0,0,0,0,0
1.213332,0,0,0,0,0,0,0,0,0,0,0,0,0,0,0,0,0,0,0,0,0,-0.0002441406,-0.9962158,-0.04418945,0,0,0,0,0,0
1.216666,0,0,0,0,0,0,0,0,0,0,0,0,0,0,0,0,0,0,0,0,0,-0.003173828,-0.9986572,-0.04064941,0,0,0,0,0,0
1.219999,0,0,0,0,0,0,0,0,0,0,0,0,0,0,0,0,0,0,0.06696933,0.01224439,0.03798261,-0.0006103516,-1.002808,-0.0402832,0,0,0,0,0,0
1.223332,0,0,0,0,0,0,0,0,0,0,0,0,0,0,0,0,0,0,0.07122898,0.01199646,0.03923842,-0.001708984,-1.005737,-0.03979492,0,0,0,0,0,0
1.226666,0,0,0,0,0,0,0,0,0,0,0,0,0,0,0,0,0,0,0,0,0,-0.001708984,-1.005737,-0.03979492,0,0,0,0,0,0
1.229999,0,0,0,0,0,0,0,0,0,0,0,0,0,0,0,0,0,0,0,0,0,-0.006469727,-1.001343,-0.04003906,0,0,0,0,0,0
1.233332,0,0,0,0,0,0,0,0,0,0,0,0,0,0,0,0,0,0,0,0,0,-0.0144043,-0.9997559,-0.03625488,0,0,0,0,0,0
1.236666,0,0,0,0,0,0,0,0,0,0,0,0,0,0,0,0,0,0,0,0,0,-0.01782227,-1.000122,-0.03491211,0,0,0,0,0,0
1.239999,0,0,0,0,0,0,0,0,0,0,0,0,0,0,0,0,0,0,0,0,0,-0.02099609,-1.003296,-0.03588867,0,0,0,0,0,0
1.243332,0,0,0,0,0,0,0,0,0,0,0,0,0,0,0,0,0,0,0,0,0,-0.02502441,-1.004761,-0.03051758,0,0,0,0,0,0
1.246666,0,0,0,0,0,0,0,0,0,0,0,0,0,0,0,0,0,0,0,0,0,-0.02697754,-1.003906,-0.02600098,0,0,0,0,0,0
1.249999,0,0,0,0,0,0,0,0,0,0,0,0,0,0,0,0,0,0,0,0,0,-0.02783203,-1.008301,-0.02563477,0,0,0,0,0,0
1.253332,0,0,0,0,0,0,0,0,0,0,0,0,0,0,0,0,0,0,0,0,0,-0.02624512,-1.009644,-0.02319336,0,0,0,0,0,0
1.256666,0,0,0,0,0,0,0,0,0,0,0,0,0,0,0,0,0,0,0,0,0,-0.03137207,-1.018799,-0.01953125,0,0,0,0,0,0
1.259999,0,0,0,0,0,0,0,0,0,0,0,0,0,0,0,0,0,0,0,0,0,-0.0402832,-1.014648,-0.01843262,0,0,0,0,0,0
1.263332,0,0,0,0,0,0,0,0,0,0,0,0,0,0,0,0,0,0,0.06947384,0.009496424,0.03298758,-0.03991699,-1.015015,-0.02026367,0,0,0,0,0,0
1.266666,0,0,0,0,0,0,0,0,0,0,0,0,0,0,0,0,0,0,0.06797441,0.008246895,0.03098833,-0.02880859,-1.022339,-0.02148438,0,0,0,0,0,0
1.269999,0,0,0,0,0,0,0,0,0,0,0,0,0,0,0,0,0,0,0,0,0,-0.02880859,-1.022339,-0.02148438,0,0,0,0,0,0
1.273332,0,0,0,0,0,0,0,0,0,0,0,0,0,0,0,0,0,0,0,0,0,-0.0357666,-1.019043,-0.01940918,0,0,0,0,0,0
1.276666,0,0,0,0,0,0,0,0,0,0,0,0,0,0,0,0,0,0,0,0,0,-0.03881836,-1.023926,-0.01342773,0,0,0,0,0,0
1.279999,0,0,0,0,0,0,0,0,0,0,0,0,0,0,0,0,0,0,0,0,0,-0.03674316,-1.027344,-0.01269531,0,0,0,0,0,0
1.283332,0,0,0,0,0,0,0,0,0,0,0,0,0,0,0,0,0,0,0,0,0,-0.03186035,-1.026978,-0.01123047,0,0,0,0,0,0
1.286666,0,0,0,0,0,0,0,0,0,0,0,0,0,0,0,0,0,0,0,0,0,-0.03320313,-1.027832,-0.006225586,0,0,0,0,0,0
1.289999,0,0,0,0,0,0,0,0,0,0,0,0,0,0,0,0,0,0,0,0,0,-0.0345459,-1.030518,-0.004516602,0,0,0,0,0,0
1.293332,0,0,0,0,0,0,0,0,0,0,0,0,0,0,0,0,0,0,0,0,0,-0.03344727,-1.02832,0.0002441406,0,0,0,0,0,0
1.296666,0,0,0,0,0,0,0,0,0,0,0,0,0,0,0,0,0,0,0,0,0,-0.03662109,-1.028076,0.00402832,0,0,0,0,0,0
1.299999,0,0,0,0,0,0,0,0,0,0,0,0,0,0,0,0,0,0,0.04751992,0.003921547,0.01061124,-0.03662109,-1.026978,0.004760742,0,0,0,0,0,0
1.303332,0,0,0,0,0,0,0,0,0,0,0,0,0,0,0,0,0,0,0.04598268,0.004998118,0.009246519,-0.0345459,-1.026733,0.01123047,0,0,0,0,0,0
1.306666,0,0,0,0,0,0,0,0,0,0,0,0,0,0,0,0,0,0,0,0,0,-0.0345459,-1.026733,0.01123047,0,0,0,0,0,0
1.309999,0,0,0,0,0,0,0,0,0,0,0,0,0,0,0,0,0,0,0,0,0,-0.03137207,-1.018555,0.006347656,0,0,0,0,0,0
1.313332,0,0,0,0,0,0,0,0,0,0,0,0,0,0,0,0,0,0,0,0,0,-0.02844238,-1.010498,0.005249023,0,0,0,0,0,0
1.316666,0,0,0,0,0,0,0,0,0,0,0,0,0,0,0,0,0,0,0,0,0,-0.03198242,-1.002441,0.005126953,0,0,0,0,0,0
1.319999,0,0,0,0,0,0,0,0,0,0,0,0,0,0,0,0,0,0,0,0,0,-0.03308105,-0.9990234,0.003662109,0,0,0,0,0,0
1.323332,0,0,0,0,0,0,0,0,0,0,0,0,0,0,0,0,0,0,0,0,0,-0.03234863,-0.9981689,0.005615234,0,0,0,0,0,0
1.326666,0,0,0,0,0,0,0,0,0,0,0,0,0,0,0,0,0,0,0,0,0,-0.0267334,-0.9946289,0.01074219,0,0,0,0,0,0
1.329999,0,0,0,0,0,0,0,0,0,0,0,0,0,0,0,0,0,0,0,0,0,-0.02355957,-0.9844971,0.01184082,0,0,0,0,0,0
1.333332,0,0,0,0,0,0,0,0,0,0,0,0,0,0,0,0,0,0,0,0,0,-0.02661133,-0.9771729,0.01379395,0,0,0,0,0,0
1.336666,0,0,0,0,0,0,0,0,0,0,0,0,0,0,0,0,0,0,0.0254904,0.002998871,-0.01299511,-0.02319336,-0.9763184,0.006103516,0,0,0,0,0,0
1.339999,0,0,0,0,0,0,0,0,0,0,0,0,0,0,0,0,0,0,0,0,0,-0.01928711,-0.9749756,-0.001953125,0,0,0,0,0,0
1.343332,0,0,0,0,0,0,0,0,0,0,0,0,0,0,0,0,0,0,0.02537472,0.001153396,-0.01476347,-0.01672363,-0.9804688,-0.01013184,0,0,0,0,0,0
1.346666,0,0,0,0,0,0,0,0,0,0,0,0,0,0,0,0,0,0,0.0294889,0.0002499059,-0.01574407,-0.01586914,-0.9873047,-0.0123291,0,0,0,0,0,0
1.349999,0,0,0,0,0,0,0,0,0,0,0,0,0,0,0,0,0,0,0,0,0,-0.01586914,-0.9873047,-0.0123291,0,0,0,0,0,0
1.353332,0,0,0,0,0,0,0,0,0,0,0,0,0,0,0,0,0,0,0,0,0,-0.01696777,-0.9951172,-0.01428223,0,0,0,0,0,0
1.356665,0,0,0,0,0,0,0,0,0,0,0,0,0,0,0,0,0,0,0,0,0,-0.0168457,-1.003906,-0.01184082,0,0,0,0,0,0
1.359999,0,0,0,0,0,0,0,0,0,0,0,0,0,0,0,0,0,0,0,0,0,-0.01525879,-1.009155,-0.006347656,0,0,0,0,0,0
1.363332,0,0,0,0,0,0,0,0,0,0,0,0,0,0,0,0,0,0,0,0,0,-0.01257324,-1.007935,-0.007080078,0,0,0,0,0,0
1.366665,0,0,0,0,0,0,0,0,0,0,0,0,0,0,0,0,0,0,0,0,0,-0.02038574,-1.016235,-0.007202148,0,0,0,0,0,0
1.369999,0,0,0,0,0,0,0,0,0,0,0,0,0,0,0,0,0,0,0,0,0,-0.02880859,-1.014526,-0.002563477,0,0,0,0,0,0
1.373332,0,0,0,0,0,0,0,0,0,0,0,0,0,0,0,0,0,0,0,0,0,-0.03027344,-1.022949,0.001098633,0,0,0,0,0,0
1.376665,0,0,0,0,0,0,0,0,0,0,0,0,0,0,0,0,0,0,0.05572902,-0.00674746,-0.002499059,-0.03100586,-1.023926,0.005371094,0,0,0,0,0,0
1.379999,0,0,0,0,0,0,0,0,0,0,0,0,0,0,0,0,0,0,0,0,0,-0.03100586,-1.023926,0.005371094,0,0,0,0,0,0
1.383332,0,0,0,0,0,0,0,0,0,0,0,0,0,0,0,0,0,0,0.05547911,-0.006997366,-0.002249153,-0.02429199,-1.023438,0.01416016,0,0,0,0,0,0
1.386665,0,0,0,0,0,0,0,0,0,0,0,0,0,0,0,0,0,0,0,0,0,-0.006103516,-1.023315,0.002685547,0,0,0,0,0,0
1.389999,0,0,0,0,0,0,0,0,0,0,0,0,0,0,0,0,0,0,0.04959166,-0.01037965,-0.002998566,-0.01013184,-1.028198,-0.0007324219,0,0,0,0,0,0
1.393332,0,0,0.02196235,-0.0005107524,0,0,0,0,0,0,0,0,0,0,0,0,0,0,0,0,0,-0.01708984,-1.032104,-0.005126953,0,0,0,0,0,0
1.396665,0,0,0.06808215,-0.001284569,0,0,0,0,0,0,0,0,0,0,0,0,0,0,0.05397968,-0.0127452,-0.002249153,-0.02160645,-1.040405,-0.003662109,0,0,0,0,0,0
1.399999,0,0,0.1142091,-0.001812842,0,0,0,0,0,0,0,0,0,0,0,0,0,0,0.04960041,-0.01222708,-0.001384198,-0.02734375,-1.045166,0.002929688,0,0,0,0,0,0
1.403332,0,0,0.1511132,-0.002128356,0,0,0,0,0,0,0,0,0,0,0,0,0,0,0.05198043,-0.01374483,-0.001249529,-0.02978516,-1.04834,0.007324219,0,0,0,0,0,0
1.406665,0,0,0.1972453,-0.002435127,0,0,0,0,0,0,0,0,0,0,0,0,0,0,0.04948137,-0.01349492,-0.0002499059,-0.02990723,-1.062378,0.01953125,0,0,0,0,0,0
1.409999,0,0,0.1972453,-0.002435127,0,0,0,0,0,0,0,0,0,0,0,0,0,0,0,0,0,-0.02990723,-1.062378,0.01953125,0,0,0,0,0,0
1.413332,0,0,0.2433786,-0.00267449,0,0,0,0,0,0,0,0,0,0,0,0,0,0,0,0,0,-0.03466797,-1.079468,0.03723145,0,0,0,0,0,0
1.416665,0,0,0.2895041,0,0,0,0,0,0,0,0,0,0,0,0,0,0,0,0,0,0,-0.03942871,-1.098511,0.04992676,0,0,0,0,0,0
1.419999,0,0,0.3264797,0.00898568,0,0,0,0,0,0,0,0,0,0,0,0,0,0,0,0,0,-0.0423584,-1.10022,0.07055664,0,0,0,0,0,0
1.423332,0,0,0.3636368,0.02175605,0,0,0,0,0,0,0,0,0,0,0,0,0,0,0,0,0,-0.04589844,-1.087402,0.08105469,0,0,0,0,0,0
1.426665,0,0,0.4101162,0.03552187,0,0,0,0,0,0,0,0,0,0,0,0,0,0,0,0,0,-0.0447998,-1.088501,0.08569336,0,0,0,0,0,0
1.429999,0,0,0.4379766,0.04280974,0,0,0,0,0,0,0,0,0,0,0,0,0,0,0,0,0,-0.04553223,-1.095947,0.07385254,0,0,0,0,0,0
1.433332,0,0,0.4845096,0.05759905,0,0,0,0,0,0,0,0,0,0,0,0,0,0,0,0,0,-0.04528809,-1.105957,0.07568359,0,0,0,0,0,0
1.436665,0,0,0.5225546,0.08651566,0,0,0,0,0,0,0,0,0,0,0,0,0,0,0,0,0,-0.05358887,-1.097534,0.08178711,0,0,0,0,0,0
1.439999,0,0,0.5508018,0.1017405,0,0,0,0,0,0,0,0,0,0,0,0,0,0,0,0,0,-0.05200195,-1.09082,0.06066895,0,0,0,0,0,0
1.443332,0,0,0.5890514,0.1320903,0,0,0,0,0,0,0,0,0,0,0,0,0,0,0,0,0,-0.0559082,-1.089355,0.05529785,0,0,0,0,0,0
1.446665,0,0,0.6278568,0.1705738,0,0,0,0,0,0,0,0,0,0,0,0,0,0,-0.06647497,-0.003248777,0.004248401,-0.06188965,-1.094482,0.06018066,0,0,0,0,0,0
1.449999,0,0,0.6566271,0.1944203,0,0,0,0,0,0,0,0,0,0,0,0,0,0,-0.07266396,-0.001845434,0.004382906,-0.06079102,-1.091919,0.0682373,0,0,0,0,0,0
1.453332,0,0,0.6768759,0.2256253,0,0,0,0,0,0,0,0,0,0,0,0,0,0,-0.08921641,-0.0002499059,0.005248024,-0.05090332,-1.074951,0.0637207,0,0,0,0,0,0
1.456665,0,0,0.6768759,0.2256253,0,0,0,0,0,0,0,0,0,0,0,0,0,0,0,0,0,-0.05090332,-1.074951,0.0637207,0,0,0,0,0,0
1.459999,0,0,0.6971855,0.2572502,0,0,0,0,0,0,0,0,0,0,0,1,0,0,0,0,0,-0.04602051,-1.043945,0.05456543,0,0,0,0,0,0
1.463332,0,0,0.7175286,0.2892655,0,0,0,0,0,0,0,0,0,0,0,1,0,0,0,0,0,-0.0378418,-1.022583,0.04064941,0,0,0,0,0,0
1.466665,0,0,0.7289252,0.3210292,0,0,0,0,0,0,0,0,0,0,0,1,0,0,0,0,0,-0.02294922,-1.023315,0.01757813,0,0,0,0,0,0
1.469999,0,0,0.740371,0.3531,0,0,0,0,0,0,0,0,0,0,0,1,0,0,0,0,0,-0.004272461,-1.024536,-0.01293945,0,0,0,0,0,0
1.473332,0,0,0.7518463,0.3854644,0,0,0,0,0,0,0,0,0,0,0,1,0,0,0,0,0,0.01037598,-1.013916,-0.03344727,0,0,0,0,0,0
1.476665,0,0,0.7626811,0.4100848,0,0,0,0,0,0,0,0,0,0,0,1,0,0,0,0,0,0.01855469,-1.000732,-0.0369873,0,0,0,0,0,0
1.479999,0,0,0.7639918,0.4261461,0,0,0,0,0,0,0,0,0,0,0,1,0,0,0,0,0,0.02148438,-0.9924316,-0.02966309,0,0,0,0,0,0
1.483332,0,0,0.7653161,0.4422681,0,0,0,0,0,0,0,0,0,0,0,1,0,0,-0.09481753,-0.01245778,0.001845597,0.01989746,-1.012451,-0.01171875,0,0,0,0,0,0
1.486665,0,0,0.7673236,0.4665636,0,0,0,0,0,0,0,0,0,0,0,1,0,0,-0.1057274,-0.01149754,0.004249093,0.02624512,-1.019775,0.01208496,0,0,0,0,0,0
1.489999,0,0,0.7774799,0.4835074,0,0,0,0,0,0,0,0,0,0,0,1,0,0,-0.111458,-0.008246895,0.004498306,0.03112793,-0.9997559,0.01879883,0,0,0,0,0,0
1.493332,0,0,0.7774799,0.4835074,0,0,0,0,0,0,0,0,0,0,0,1,0,0,0,0,0,0.03112793,-0.9997559,0.01879883,0,0,0,0,0,0
1.496665,0,0,0.7788205,0.49984,0,0,0,0,0,0,0,0,0,0,0,1,0,0,0,0,0,0.03710938,-0.9606934,0.005126953,0,0,0,0,0,0
1.499999,0,0,0.7889521,0.5168996,0,0,0,0,0,0,0,0,0,0,0,1,0,0,0,0,0,0.03198242,-0.9417725,0.00769043,0,0,0,0,0,0
1.503332,0,0,0.7909556,0.5415903,0,0,0,0,0,0,0,0,0,0,0,1,0,0,0,0,0,0.03918457,-0.9106445,-0.0008544922,0,0,0,0,0,0
1.506665,0,0,0.7916245,0.5498476,0,0,0,0,0,0,0,0,0,0,0,1,0,0,0,0,0,0.03588867,-0.9134521,-0.04602051,0,0,0,0,0,0
1.509999,0,0,0.7916245,0.5498476,0,0,0,0,0,0,0,0,0,0,0,1,0,0,0,0,0,0.05517578,-0.9344482,-0.05969238,0,0,0,0,0,0
1.513332,0,0,0.7922937,0.5581182,0,0,0,0,0,0,0,0,0,0,0,1,0,0,0,0,0,0.06054688,-0.9543457,-0.06604004,0,0,0,0,0,0
1.516665,0,0,0.7922937,0.5581182,0,0,0,0,0,0,0,0,0,0,0,1,0,0,0,0,0,0.05297852,-0.9683838,-0.07165527,0,0,0,0,0,0
1.519999,0,0,0.8010541,0.5587841,0,0,0,0,0,0,0,0,0,0,0,1,0,0,0,0,0,0.02844238,-0.9598389,-0.04736328,0,0,0,0,0,0
1.523332,0,0,0.8010541,0.5587841,0,0,0,0,0,0,0,0,0,0,0,1,0,0,-0.03621664,-0.007381736,-0.002537472,0.009033203,-0.9615479,-0.0201416,0,0,0,0,0,0
1.526665,0,0,0.8098236,0.5594434,0,0,0,0,0,0,0,0,0,0,0,1,0,0,-0.03473692,-0.007747083,-0.001999247,0.03723145,-0.9715576,-0.1086426,0,0,0,0,0,0
1.529999,0,0,0.8098236,0.5594434,0,0,0,0,0,0,0,0,0,0,0,1,0,0,0,0,0,0.03723145,-0.9715576,-0.1086426,0,0,0,0,0,0
1.533332,0,0,0.8179528,0.5518246,0,0,0,0,0,0,0,0,0,0,0,1,0,0,0,0,0,0.05395508,-0.9758301,-0.1536865,0,0,0,0,0,0
1.536665,0,0,0.834913,0.5448493,0,0,0,0,0,0,0,0,0,0,0,1,0,0,0,0,0,0.04162598,-0.9772949,-0.1508789,0,0,0,0,0,0
1.539999,0,0,0.851313,0.5296187,0,0,0,0,0,0,0,0,0,0,0,1,0,0,0,0,0,0.02929688,-0.9759521,-0.1235352,0,0,0,0,0,0
1.543332,0,0,0.8672013,0.5061945,0,0,0,0,0,0,0,0,0,0,0,1,0,0,0,0,0,0.01123047,-0.9749756,-0.07006836,0,0,0,0,0,0
1.546665,0,0,0.8921323,0.483402,0,0,0,0,0,0,0,0,0,0,0,1,0,0,0,0,0,-0.001220703,-0.9573975,-0.03967285,0,0,0,0,0,0
1.549999,0,0,0.9172666,0.4606017,0,0,0,0,0,0,0,0,0,0,0,1,0,0,0,0,0,0.002563477,-0.9515381,-0.02758789,0,0,0,0,0,0
1.553332,0,0,0.9420921,0.4296571,0,0,0,0,0,0,0,0,0,0,0,1,0,0,0,0,0,0.01940918,-0.9472656,-0.03967285,0,0,0,0,0,0
1.556665,0,0,0.9762193,0.3991828,0,0,0,0,0,0,0,0,0,0,0,1,0,0,0,0,0,0.02490234,-0.9417725,-0.05102539,0,0,0,0,0,0
1.559999,0,0,1,0.3605264,0,0,0,0,0,0,0,0,0,0,0,1,0,0,0.06498083,-0.01174653,0.003748894,0.01403809,-0.9515381,-0.04626465,0,0,0,0,0,0
1.563332,0,0,1,0.3202776,0,0,0,0,0,0,0,0,0,0,0,1,0,0,0.07222281,-0.01299511,0.0004998118,-0.005981445,-0.9371338,-0.05090332,0,0,0,0,0,0
1.566665,0,0,1,0.2642672,0,0,0,0,0,0,0,0,0,0,0,1,0,0,0.073356,-0.01199532,-0.00322951,-0.01489258,-0.9318848,-0.05517578,0,0,0,0,0,0
1.569999,0,0,1,0.2642672,0,0,0,0,0,0,0,0,0,0,0,1,0,0,0,0,0,-0.01489258,-0.9318848,-0.05517578,0,0,0,0,0,0
1.573332,0,0,1,0.2006854,0,0,0,0,0,0,0,0,0,0,0,1,0,0,0,0,0,-0.005859375,-0.9440918,-0.04956055,0,0,0,0,0,0
1.576665,0,0,1,0.1374799,0,0,0,0,0,0,0,0,0,0,0,1,0,0,0,0,0,-0.0003662109,-0.9630127,-0.04211426,0,0,0,0,0,0
1.579999,0,0,1,0.06669273,0,0,0,0,0,0,0,0,0,0,0,0,0,0,0,0,0,-0.003295898,-0.9958496,-0.01367188,0,0,0,0,0,0
1.583332,0,0,1,-0.003921574,0,0,0,0,0,0,0,0,0,0,0,0,0,0,0,0,0,-0.01062012,-1.043945,0.01733398,0,0,0,0,0,0
1.586665,0,0,1,-0.06669273,0,0,0,0,0,0,0,0,0,0,0,0,0,0,0,0,0,-0.0267334,-1.093628,0.04431152,0,0,0,0,0,0
1.589999,0,0,1,-0.1217254,0,0,0,0,0,0,0,0,0,0,0,0,0,0,0,0,0,-0.07019043,-1.098022,0.08288574,0,0,0,0,0,0
1.593332,0,0,1,-0.1611441,0,0,0,0,0,0,0,0,0,0,0,0,0,0,0,0,0,-0.09802246,-1.099487,0.1113281,0,0,0,0,0,0
1.596665,0,0,1,-0.1927661,0,0,0,0,0,0,0,0,0,0,0,0,0,0,0,0,0,-0.1120605,-1.092651,0.1074219,0,0,0,0,0,0
1.599999,0,0,1,-0.2086106,0,0,0,0,0,0,0,0,0,0,0,0,0,0,-0.04923147,0.002249153,-0.03423711,-0.0982666,-1.12854,0.04064941,0,0,0,0,0,0
1.603332,0,0,1,-0.2324234,0,0,0,0,0,0,0,0,0,0,0,0,0,0,-0.0677245,-0.0002499059,-0.04073466,-0.1098633,-1.100098,0.05627441,0,0,0,0,0,0
1.606665,0,0,1,-0.2483314,0,0,0,0,0,0,0,0,0,0,0,0,0,0,-0.07243329,-0.0002306792,-0.03944615,-0.09057617,-1.081909,0.04833984,0,0,0,0,0,0
1.609999,0,0,1,-0.2483314,0,0,0,0,0,0,0,0,0,0,0,0,0,0,0,0,0,-0.09057617,-1.081909,0.04833984,0,0,0,0,0,0
1.613332,0,0,1,-0.2562958,0,0,0,0,0,0,0,0,0,0,0,0,0,0,0,0,0,-0.09313965,-1.053955,0.03271484,0,0,0,0,0,0
1.616665,0,0,1,-0.2562958,0,0,0,0,0,0,0,0,0,0,0,0,0,0,0,0,0,-0.08764648,-1.049316,0.01416016,0,0,0,0,0,0
1.619999,0,0,1,-0.2642672,0,0,0,0,0,0,0,0,0,0,0,0,0,0,0,0,0,-0.08105469,-1.057373,0.005249023,0,0,0,0,0,0
1.623332,0,0,1,-0.2642672,0,0,0,0,0,0,0,0,0,0,0,0,0,0,0,0,0,-0.06005859,-1.072266,-0.005493164,0,0,0,0,0,0
1.626665,0,0,1,-0.2722459,0,0,0,0,0,0,0,0,0,0,0,0,0,0,0,0,0,-0.04602051,-1.086426,-0.03173828,0,0,0,0,0,0
1.629999,0,0,1,-0.2722459,0,0,0,0,0,0,0,0,0,0,0,0,0,0,0,0,0,-0.03881836,-1.0802,-0.04174805,0,0,0,0,0,0
1.633332,0,0,1,-0.2722459,0,0,0,0,0,0,0,0,0,0,0,0,0,0,0,0,0,-0.0423584,-1.06897,-0.02819824,0,0,0,0,0,0
1.636665,0,0,1,-0.2722459,0,0,0,0,0,0,0,0,0,0,0,0,0,0,0,0,0,-0.03771973,-1.066284,-0.01928711,0,0,0,0,0,0
1.639999,0,0,1,-0.2722459,0,0,0,0,0,0,0,0,0,0,0,0,0,0,0,0,0,-0.02612305,-1.06604,-0.01269531,0,0,0,0,0,0
1.643332,0,0,1,-0.2722459,0,0,0,0,0,0,0,0,0,0,0,0,0,0,-0.08097611,-0.01299617,-0.03074093,-0.02050781,-1.05542,-0.01257324,0,0,0,0,0,0
1.646665,0,0,1,-0.2722459,0,0,0,0,0,0,0,0,0,0,0,0,0,0,-0.07797065,-0.01224539,-0.02673993,-0.009277344,-1.046265,-0.0002441406,0,0,0,0,0,0
1.649999,0,0,1,-0.2722459,0,0,0,0,0,0,0,0,0,0,0,0,0,0,-0.07496566,-0.01049519,-0.02348924,-0.003662109,-1.039551,0.001708984,0,0,0,0,0,0
1.653332,0,0,1,-0.2722459,0,0,0,0,0,0,0,0,0,0,0,0,0,0,0,0,0,-0.003662109,-1.039551,0.001708984,0,0,0,0,0,0
1.656665,0,0,1,-0.2722459,0,0,0,0,0,0,0,0,0,0,0,0,0,0,0,0,0,0.005981445,-1.041626,-0.01281738,0,0,0,0,0,0
1.659999,0,0,1,-0.2722459,0,0,0,0,0,0,0,0,0,0,0,0,0,0,0,0,0,0.009277344,-1.037231,-0.02233887,0,0,0,0,0,0
1.663332,0,0,1,-0.2722459,0,0,0,0,0,0,0,0,0,0,0,0,0,0,0,0,0,0.004394531,-1.024658,-0.01940918,0,0,0,0,0,0
1.666665,0,0,1,-0.2722459,0,0,0,0,0,0,0,0,0,0,0,0,0,0,0,0,0,0.002563477,-1.01709,-0.0189209,0,0,0,0,0,0
1.669999,0,0,1,-0.2722459,0,0,0,0,0,0,0,0,0,0,0,0,0,0,0,0,0,-0.006225586,-1.012573,-0.03808594,0,0,0,0,0,0
1.673332,0,0,1,-0.2722459,0,0,0,0,0,0,0,0,0,0,0,0,0,0,0,0,0,-0.008911133,-1.004272,-0.01843262,0,0,0,0,0,0
1.676665,0,0,1,-0.2722459,0,0,0,0,0,0,0,0,0,0,0,0,0,0,0,0,0,-0.009155273,-0.9962158,-0.02209473,0,0,0,0,0,0
1.679999,0,0,1,-0.2722459,0,0,0,0,0,0,0,0,0,0,0,0,0,0,0,0,0,-0.01599121,-0.9936523,-0.01403809,0,0,0,0,0,0
1.683332,0,0,1,-0.2722459,0,0,0,0,0,0,0,0,0,0,0,0,0,0,-0.05622883,-0.004498306,-0.009496424,-0.01757813,-0.9954834,-0.01916504,0,0,0,0,0,0
1.686665,0,0,1,-0.2722459,0,0,0,0,0,0,0,0,0,0,0,0,0,0,-0.05522921,-0.003248777,-0.01124577,-0.02355957,-1.00354,-0.03161621,0,0,0,0,0,0
1.689999,0,0,1,-0.2722459,0,0,0,0,0,0,0,0,0,0,0,0,0,0,0,0,0,-0.02355957,-1.00354,-0.03161621,0,0,0,0,0,0
1.693332,0,0,1,-0.2722459,0,0,0,0,0,0,0,0,0,0,0,0,0,0,0,0,0,-0.02490234,-0.9912109,-0.03466797,0,0,0,0,0,0
1.696665,0,0,1,-0.2722459,0,0,0,0,0,0,0,0,0,0,0,0,0,0,0,0,0,-0.02319336,-0.9818115,-0.03723145,0,0,0,0,0,0
1.699998,0,0,1,-0.2722459,0,0,0,0,0,0,0,0,0,0,0,0,0,0,0,0,0,-0.02160645,-0.9755859,-0.04748535,0,0,0,0,0,0
1.703332,0,0,1,-0.2722459,0,0,0,0,0,0,0,0,0,0,0,0,0,0,0,0,0,-0.0267334,-0.9763184,-0.0567627,0,0,0,0,0,0
1.706665,0,0,1,-0.2722459,0,0,0,0,0,0,0,0,0,0,0,0,0,0,0,0,0,-0.0189209,-0.9626465,-0.05358887,0,0,0,0,0,0
1.709998,0,0,1,-0.2722459,0,0,0,0,0,0,0,0,0,0,0,0,0,0,0,0,0,-0.01171875,-0.9643555,-0.05053711,0,0,0,0,0,0
1.713332,0,0,1,-0.2722459,0,0,0,0,0,0,0,0,0,0,0,0,0,0,0,0,0,-0.003295898,-0.9624023,-0.05358887,0,0,0,0,0,0
1.716665,0,0,1,-0.2722459,0,0,0,0,0,0,0,0,0,0,0,0,0,0,0,0,0,0.006225586,-0.9672852,-0.05822754,0,0,0,0,0,0
1.719998,0,0,1,-0.2722459,0,0,0,0,0,0,0,0,0,0,0,0,0,0,0.004998118,-0.006497554,-0.01874294,0.01403809,-0.9758301,-0.05969238,0,0,0,0,0,0
1.723332,0,0,1,-0.2722459,0,0,0,0,0,0,0,0,0,0,0,0,0,0,0.009747124,-0.007497788,-0.01974417,0.01574707,-0.9838867,-0.06079102,0,0,0,0,0,0
1.726665,0,0,1,-0.2722459,0,0,0,0,0,0,0,0,0,0,0,0,0,0,0,0,0,0.01574707,-0.9838867,-0.06079102,0,0,0,0,0,0
1.729998,0,0,1,-0.2722459,0,0,0,0,0,0,0,0,0,0,0,0,0,0,0,0,0,0.01989746,-0.9904785,-0.05273438,0,0,0,0,0,0
1.733332,0,0,1,-0.2722459,0,0,0,0,0,0,0,0,0,0,0,0,0,0,0,0,0,0.01867676,-1.003052,-0.05102539,0,0,0,0,0,0
1.736665,0,0,1,-0.2722459,0,0,0,0,0,0,0,0,0,0,0,0,0,0,0,0,0,0.01953125,-1.006226,-0.04760742,0,0,0,0,0,0
1.739998,0,0,1,-0.2722459,0,0,0,0,0,0,0,0,0,0,0,0,0,0,0,0,0,0.01782227,-1.018555,-0.04541016,0,0,0,0,0,0
1.743332,0,0,1,-0.2722459,0,0,0,0,0,0,0,0,0,0,0,0,0,0,0,0,0,0.02087402,-1.023071,-0.04418945,0,0,0,0,0,0
1.746665,0,0,1,-0.2722459,0,0,0,0,0,0,0,0,0,0,0,0,0,0,0,0,0,0.02502441,-1.029419,-0.03491211,0,0,0,0,0,0
1.749998,0,0,1,-0.2722459,0,0,0,0,0,0,0,0,0,0,0,0,0,0,0,0,0,0.02624512,-1.027832,-0.03515625,0,0,0,0,0,0
1.753332,0,0,1,-0.2722459,0,0,0,0,0,0,0,0,0,0,0,0,0,0,0,0,0,0.02770996,-1.029541,-0.03210449,0,0,0,0,0,0
1.756665,0,0,1,-0.2722459,0,0,0,0,0,0,0,0,0,0,0,0,0,0,0.00674746,-0.004248401,-0.008496801,0.0291748,-1.029175,-0.03051758,0,0,0,0,0,0
1.759998,0,0,1,-0.2722459,0,0,0,0,0,0,0,0,0,0,0,0,0,0,0.001249529,-0.003748589,-0.005747836,0.02600098,-1.023804,-0.03369141,0,0,0,0,0,0
1.763332,0,0,1,-0.2722459,0,0,0,0,0,0,0,0,0,0,0,0,0,0,-0.00299883,-0.003690868,-0.00299883,0.02734375,-1.016602,-0.02575684,0,0,0,0,0,0
1.766665,0,0,1,-0.2722459,0,0,0,0,0,0,0,0,0,0,0,0,0,0,-0.005997742,-0.002998871,-0.0009996236,0.02954102,-1.013794,-0.02819824,0,0,0,0,0,0
1.769998,0,0,1,-0.2722459,0,0,0,0,0,0,0,0,0,0,0,0,0,0,0,0,0,0.02954102,-1.013794,-0.02819824,0,0,0,0,0,0
1.773332,0,0,1,-0.2722459,0,0,0,0,0,0,0,0,0,0,0,0,0,0,0,0,0,0.02832031,-1.003052,-0.0255127,0,0,0,0,0,0
1.776665,0,0,1,-0.2722459,0,0,0,0,0,0,0,0,0,0,0,0,0,0,0,0,0,0.02648926,-0.9943848,-0.03344727,0,0,0,0,0,0
1.779998,0,0,1,-0.2722459,0,0,0,0,0,0,0,0,0,0,0,0,0,0,0,0,0,0.02148438,-0.9925537,-0.04064941,0,0,0,0,0,0
1.783332,0,0,1,-0.2642672,0,0,0,0,0,0,0,0,0,0,0,0,0,0,0,0,0,0.02124023,-0.9821777,-0.03588867,0,0,0,0,0,0
1.786665,0,0,1,-0.2642672,0,0,0,0,0,0,0,0,0,0,0,0,0,0,0,0,0,0.01855469,-0.9766846,-0.04455566,0,0,0,0,0,0
1.789998,0,0,1,-0.2642672,0,0,0,0,0,0,0,0,0,0,0,0,0,0,0,0,0,0.01428223,-0.9719238,-0.04870605,0,0,0,0,0,0
1.793332,0,0,1,-0.2642672,0,0,0,0,0,0,0,0,0,0,0,0,0,0,0,0,0,0.01306152,-0.9700928,-0.04907227,0,0,0,0,0,0
1.796665,0,0,1,-0.2642672,0,0,0,0,0,0,0,0,0,0,0,0,0,0,0,0,0,0.01025391,-0.9760742,-0.05175781,0,0,0,0,0,0
1.799998,0,0,1,-0.2642672,0,0,0,0,0,0,0,0,0,0,0,0,0,0,0,0,0,0.006347656,-0.9833984,-0.05273438,0,0,0,0,0,0
1.803332,0,0,1,-0.2642672,0,0,0,0,0,0,0,0,0,0,0,0,0,0,-0.0009227984,-0.0006920988,0.003229794,0.002197266,-0.9886475,-0.05395508,0,0,0,0,0,0
1.806665,0,0,1,-0.2642672,0,0,0,0,0,0,0,0,0,0,0,0,0,0,0.001499435,-0.0004998118,0.001999247,-0.0006103516,-0.9940186,-0.05090332,0,0,0,0,0,0
1.809998,0,0,1,-0.2642672,0,0,0,0,0,0,0,0,0,0,0,0,0,0,0,0,0,-0.0006103516,-0.9940186,-0.05090332,0,0,0,0,0,0
1.813332,0,0,1,-0.2642672,0,0,0,0,0,0,0,0,0,0,0,0,0,0,0,0,0,0.00378418,-0.9970703,-0.04736328,0,0,0,0,0,0
1.816665,0,0,1,-0.2642672,0,0,0,0,0,0,0,0,0,0,0,0,0,0,0,0,0,0.00402832,-0.9980469,-0.04626465,0,0,0,0,0,0
1.819998,0,0,1,-0.2642672,0,0,0,0,0,0,0,0,0,0,0,0,0,0,0,0,0,0.0078125,-0.9970703,-0.04846191,0,0,0,0,0,0
1.823332,0,0,1,-0.2562958,0,0,0,0,0,0,0,0,0,0,0,0,0,0,0,0,0,0.008789063,-1.002808,-0.04736328,0,0,0,0,0,0
1.826665,0,0,1,-0.2562958,0,0,0,0,0,0,0,0,0,0,0,0,0,0,0,0,0,0.009033203,-1.007446,-0.04638672,0,0,0,0,0,0
1.829998,0,0,1,-0.2562958,0,0,0,0,0,0,0,0,0,0,0,0,0,0,0,0,0,0.01184082,-1.005981,-0.04626465,0,0,0,0,0,0
1.833332,0,0,1,-0.2562958,0,0,0,0,0,0,0,0,0,0,0,0,0,0,0,0,0,0.01574707,-1.00708,-0.04333496,0,0,0,0,0,0
1.836665,0,0,1,-0.2483314,0,0,0,0,0,0,0,0,0,0,0,0,0,0,0,0,0,0.01843262,-1.004272,-0.04309082,0,0,0,0,0,0
1.839998,0,0,1,-0.2483314,0,0,0,0,0,0,0,0,0,0,0,0,0,0,0.02424087,-0.0004998118,0.003248777,0.02001953,-0.9992676,-0.04394531,0,0,0,0,0,0
1.843332,0,0,1,-0.2483314,0,0,0,0,0,0,0,0,0,0,0,0,0,0,0.02773956,-0.0004998118,0.004748212,0.02282715,-0.9984131,-0.04516602,0,0,0,0,0,0
1.846665,0,0,1,-0.2483314,0,0,0,0,0,0,0,0,0,0,0,0,0,0,0.02906558,0,0.005766981,0.0246582,-0.9979248,-0.04125977,0,0,0,0,0,0
1.849998,0,0,1,-0.2483314,0,0,0,0,0,0,0,0,0,0,0,0,0,0,0,0,0,0.0246582,-0.9979248,-0.04125977,0,0,0,0,0,0
1.853332,0,0,1,-0.2483314,0,0,0,0,0,0,0,0,0,0,0,0,0,0,0,0,0,0.02380371,-0.9985352,-0.04040527,0,0,0,0,0,0
1.856665,0.03153272,-0.002102181,1,-0.2483314,0,0,0,0,0,0,0,0,0,0,0,0,0,0,0,0,0,0.02099609,-0.9984131,-0.03552246,0,0,0,0,0,0
1.859998,0.06808215,-0.001284569,1,-0.2403741,0,0,0,0,0,0,0,0,0,0,0,0,0,0,0,0,0,0.01721191,-0.9989014,-0.03295898,0,0,0,0,0,0
1.863332,0.1234141,0,1,-0.2403741,0,0,0,0,0,0,0,0,0,0,0,0,0,0,0,0,0,0.01379395,-1.001587,-0.03039551,0,0,0,0,0,0
1.866665,0.1699411,0.0113294,1,-0.2403741,0,0,0,0,0,0,0,0,0,0,0,0,0,0,0,0,0,0.00769043,-1.008667,-0.02319336,0,0,0,0,0,0
1.869998,0.2070833,0.01746486,1,-0.2403741,0,0,0,0,0,0,0,0,0,0,0,0,0,0,0,0,0,0.005493164,-1.010132,-0.01977539,0,0,0,0,0,0
1.873332,0.2542944,0.03554653,1,-0.2403741,0,0,0,0,0,0,0,0,0,0,0,0,0,0,0,0,0,0.006103516,-1.013184,-0.01647949,0,0,0,0,0,0
1.876665,0.3097321,0.04424744,1,-0.2324234,0,0,0,0,0,0,0,0,0,0,0,0,0,0,0.03414053,0.00299883,0.01522483,0.001220703,-1.01709,-0.0111084,0,0,0,0,0,0
1.879998,0.4031442,0.07417853,1,-0.2244794,0,0,0,0,0,0,0,0,0,0,0,0,0,0,0,0,0,-0.001831055,-1.016846,-0.01208496,0,0,0,0,0,0
1.883332,0.4497937,0.08995874,1,-0.2165419,0,0,0,0,0,0,0,0,0,0,0,0,0,0,0,0,0,0.003295898,-1.016968,-0.009521484,0,0,0,0,0,0
1.886665,0.4964027,0.1061275,1,-0.2086106,0,0,0,0,0,0,0,0,0,0,0,0,0,0,0,0,0,0.001464844,-1.013794,-0.01367188,0,0,0,0,0,0
1.889998,0.5425075,0.1155016,1,-0.1927661,0,0,0,0,0,0,0,0,0,0,0,0,0,0,0,0,0,-0.0008544922,-1.00769,-0.01953125,0,0,0,0,0,0
1.893332,0.5890514,0.1320903,1,-0.1848525,0,0,0,0,0,0,0,0,0,0,0,0,0,0,0,0,0,-0.001220703,-1.006836,-0.02197266,0,0,0,0,0,0
1.896665,0.6264403,0.1484628,1,-0.1690417,0,0,0,0,0,0,0,0,0,0,0,0,0,0,0,0,0,-0.003417969,-1.000488,-0.02709961,0,0,0,0,0,0
1.899998,0.6638063,0.1650347,1,-0.1611441,0,0,0,0,0,0,0,0,0,0,0,0,0,0,0,0,0,-0.004638672,-1.002441,-0.02368164,0,0,0,0,0,0
1.903332,0.7007175,0.1742525,1,-0.1532514,0,0,0,0,0,0,0,0,0,0,0,0,0,0,0,0,0,-0.007202148,-1.004517,-0.01953125,0,0,0,0,0,0
1.906665,0.7193827,0.1826412,1,-0.1374799,0,0,0,0,0,0,0,0,0,0,0,0,0,0,0.0254904,0.001999247,0.01524426,-0.006835938,-1.00647,-0.01660156,0,0,0,0,0,0
1.909998,0.7471625,0.1914838,1,-0.1296006,0,0,0,0,0,0,0,0,0,0,0,0,0,0,0.02474068,0.002998871,0.01499435,-0.002807617,-1.008301,-0.02380371,0,0,0,0,0,0
1.913332,0.7662332,0.2076001,1,-0.1217254,0,0,0,0,0,0,0,0,0,0,0,0,0,0,0.02375996,0.002768151,0.0133794,0.004760742,-1.009399,-0.02770996,0,0,0,0,0,0
1.916665,0.7848792,0.2161262,1,-0.113854,0,0,0,0,0,0,0,0,0,0,0,0,0,0,0.02673993,0.002499059,0.01399473,0.008789063,-1.011841,-0.03466797,0,0,0,0,0,0
1.919998,0.8035201,0.224681,1,-0.1059862,0,0,0,0,0,0,0,0,0,0,0,0,0,0,0.02748965,0.001249529,0.0127452,0.01367188,-1.011597,-0.03979492,0,0,0,0,0,0
1.923332,0.8035201,0.224681,1,-0.1059862,0,0,0,0,0,0,0,0,0,0,0,0,0,0,0,0,0,0.01367188,-1.011597,-0.03979492,0,0,0,0,0,0
1.926665,0.8225763,0.241034,1,-0.09812176,0,0,0,0,0,0,0,0,0,0,0,0,0,0,0,0,0,0.01733398,-1.025024,-0.04187012,0,0,0,0,0,0
1.929998,0.832537,0.2570506,1,-0.09026043,0,0,0,0,0,0,0,0,0,0,0,0,0,0,0,0,0,0.01916504,-1.037109,-0.0435791,0,0,0,0,0,0
1.933332,0.8515949,0.2735893,1,-0.08240198,0,0,0,0,0,0,0,0,0,0,0,0,0,0,0,0,0,0.01696777,-1.047974,-0.0435791,0,0,0,0,0,0
1.936665,0.861571,0.289766,1,-0.07454614,0,0,0,0,0,0,0,0,0,0,0,0,0,0,0,0,0,0.009521484,-1.058472,-0.04345703,0,0,0,0,0,0
1.939998,0.8715569,0.3060133,1,-0.05884144,0,0,0,0,0,0,0,0,0,0,0,0,0,0,0,0,0,0.005981445,-1.061401,-0.04162598,0,0,0,0,0,0
1.943332,0.872979,0.3297921,1,-0.05099206,0,0,0,0,0,0,0,0,0,0,0,0,0,0,0,0,0,0.005371094,-1.062866,-0.04724121,0,0,0,0,0,0
1.946665,0.8744653,0.3536727,1,-0.04314433,0,0,0,0,0,0,0,0,0,0,0,0,0,0,0,0,0,0.01074219,-1.072998,-0.04663086,0,0,0,0,0,0
1.949998,0.8765361,0.3856759,1,-0.02745281,0,0,0,0,0,0,0,0,0,0,0,0,0,0,0,0,0,0.0135498,-1.083008,-0.04077148,0,0,0,0,0,0
1.953332,0.8786947,0.4178682,1,-0.01176485,0,0,0,0,0,0,0,0,0,0,0,0,0,0,0,0,0,0.01733398,-1.083984,-0.04150391,0,0,0,0,0,0
1.956665,0.8803626,0.4421377,1,0,0,0,0,0,0,0,0,0,0,0,0,0,0,0,0,0,0,0.01342773,-1.077515,-0.03588867,0,0,0,0,0,0
1.959998,0.882066,0.4665149,1,0.01960851,0,0,0,0,0,0,0,0,0,0,0,0,0,0,0,0,0,-0.001464844,-1.073975,-0.02307129,0,0,0,0,0,0
1.963332,0.8837993,0.4909996,1,0.035298,0,0,0,0,0,0,0,0,0,0,0,0,0,0,0,0,0,-0.008056641,-1.074463,-0.009887695,0,0,0,0,0,0
1.966665,0.8766764,0.5149983,1,0.04314433,0,0,0,0,0,0,0,0,0,0,0,0,0,0,0.01549417,-0.004748212,0.03448702,-0.006347656,-1.067627,-0.001953125,0,0,0,0,0,0
1.969998,0.8702276,0.5473377,1,0.05099206,0,0,0,0,0,0,0,0,0,0,0,0,0,0,0,0,0,-0.01220703,-1.055786,0.008422852,0,0,0,0,0,0
1.973332,0.8550501,0.5792275,1,0.05884144,0,0,0,0,0,0,0,0,0,0,0,0,0,0,0.009457849,-0.0004613585,0.03252577,-0.02661133,-1.03479,0.01477051,0,0,0,0,0,0
1.976665,0.840647,0.6196319,1,0.06669273,0,0,0,0,0,0,0,0,0,0,0,0,0,0,0.007996988,0.0004998118,0.03173805,-0.0402832,-1.018799,0.02502441,0,0,0,0,0,0
1.979998,0.840647,0.6196319,1,0.06669273,0,0,0,0,0,0,0,0,0,0,0,0,0,0,0,0,0,-0.0402832,-1.018799,0.02502441,0,0,0,0,0,0
1.983332,0.818319,0.6680962,1,0.06669273,0,0,0,0,0,0,0,0,0,0,0,0,0,0,0,0,0,-0.03771973,-1.009277,0.03173828,0,0,0,0,0,0
1.986665,0.7961985,0.7169749,0.9450669,0.0661158,0,0,0,0,0,0,0,0,0,0,0,0,0,0,0,0,0,-0.03173828,-0.9996338,0.02966309,0,0,0,0,0,0
1.989998,0.766288,0.7742289,0.8805305,0.06536689,0,0,0,0,0,0,0,0,0,0,0,0,0,0,0,0,0,-0.02185059,-0.9931641,0.02734375,0,0,0,0,0,0
1.993332,0.7450754,0.8327313,0.8067878,0.06439152,0,0,0,0,0,0,0,0,0,0,0,0,0,0,0,0,0,-0.007202148,-0.9864502,0.01293945,0,0,0,0,0,0
1.996665,0.7062927,0.8818683,0.7330641,0.06325933,0,0,0,0,0,0,0,0,0,0,0,0,0,0,0,0,0,-0.003295898,-0.9703369,-0.007202148,0,0,0,0,0,0
1.999998,0.6839312,0.923907,0.6593661,0.06192942,0,0,0,0,0,0,0,0,0,0,0,0,0,0,0,0,0,-0.01318359,-0.9476318,-0.04907227,0,0,0,0,0,0
2.003332,0.6514414,0.9391946,0.5767347,0.06722675,0,0,0,0,0,0,0,0,0,0,0,0,0,0,0,0,0,-0.01660156,-0.9326172,-0.05993652,0,0,0,0,0,0
2.006665,0.6190876,0.9545932,0.503186,0.06503765,0,0,0,0,0,0,0,0,0,0,0,0,0,0,0.03173805,0.006997366,-0.007747083,-0.01550293,-0.9437256,-0.05322266,0,0,0,0,0,0
2.009998,0.5957312,0.979558,0.4114003,0.06154807,0,0,0,0,0,0,0,0,0,0,0,0,0,0,0.04048476,0.003998494,-0.01224539,-0.01428223,-0.9614258,-0.04272461,0,0,0,0,0,0
2.013332,0.5552751,0.9947014,0.3199038,0.05680534,0,0,0,0,0,0,0,0,0,0,0,0,0,0,0.03967683,0.001614755,-0.01476347,-0.01318359,-0.9711914,-0.02575684,0,0,0,0,0,0
2.016665,0.5552751,0.9947014,0.3199038,0.05680534,0,0,0,0,0,0,0,0,0,0,0,0,0,0,0,0,0,-0.01318359,-0.9711914,-0.02575684,0,0,0,0,0,0
2.019998,0.5227324,1,0.228977,0.05000648,0,0,0,0,0,0,0,0,0,0,0,0,0,0,0,0,0,-0.008666992,-0.9815674,-0.008056641,0,0,0,0,0,0
2.023332,0.4908059,1,0.1393359,0.03951317,0,0,0,0,0,0,0,0,0,0,0,0,0,0,0,0,0,-0.006225586,-0.9851074,-0.005859375,0,0,0,0,0,0
2.026665,0.4580168,1,0.05934514,0.02058913,0,0,0,0,0,0,0,0,0,0,0,0,0,0,0,0,0,-0.003540039,-0.9873047,-0.001464844,0,0,0,0,0,0
2.029998,0.433522,1,0,0,0,0,0,0,0,0,0,0,0,0,0,0,0,0,0,0,0,-0.001342773,-0.9946289,0.004882813,0,0,0,0,0,0
2.033332,0.4172379,1,0,0,0,0,0,0,0,0,0,0,0,0,0,0,0,0,0,0,0,0.004150391,-1.006348,0.0168457,0,0,0,0,0,0
2.036665,0.4091095,1,0,0,0,0,0,0,0,0,0,0,0,0,0,0,0,0,0,0,0,0.02404785,-1.041504,0.02648926,0,0,0,0,0,0
2.039998,0.3928797,1,0,0,0,0,0,0,0,0,0,0,0,0,0,0,0,0,0,0,0,0.002319336,-1.02478,0.01428223,0,0,0,0,0,0
2.043332,0.3847782,1,0,0,0,0,0,0,0,0,0,0,0,0,0,0,0,0,0,0,0,-0.0213623,-1.010864,0.002441406,0,0,0,0,0,0
2.046665,0.3766855,1,0,0,0,0,0,0,0,0,0,0,0,0,0,0,0,0,0,0,0,-0.03149414,-1.009277,0.003051758,0,0,0,0,0,0
2.049998,0.3686016,1,0,0,0,0,0,0,0,0,0,0,0,0,0,0,0,0,0.005747836,-0.004998118,-0.006497554,-0.03344727,-1.014404,0.006225586,0,0,0,0,0,0
2.053332,0.3605264,1,0,0,0,0,0,0,0,0,0,0,0,0,0,0,0,0,0.001999247,-0.003498683,-0.00674746,-0.03283691,-1.024536,0.01696777,0,0,0,0,0,0
2.056665,0.3605264,1,0,0,0,0,0,0,0,0,0,0,0,0,0,0,0,0,0,0,0,-0.03283691,-1.024536,0.01696777,0,0,0,0,0,0
2.059998,0.3524597,1,0,0,0,0,0,0,0,0,0,0,0,0,0,0,0,0,0,0,0,-0.02941895,-1.033813,0.01818848,0,0,0,0,0,0
2.063332,0.3444016,1,0,0,0,0,0,0,0,0,0,0,0,0,0,0,0,0,0,0,0,-0.02783203,-1.039063,0.01965332,0,0,0,0,0,0
2.066665,0.3444016,1,0,0,0,0,0,0,0,0,0,0,0,0,0,0,0,0,0,0,0,-0.02807617,-1.039551,0.01696777,0,0,0,0,0,0
2.069998,0.3444016,1,0,0,0,0,0,0,0,0,0,0,0,0,0,0,0,0,0,0,0,-0.0324707,-1.036255,0.01208496,0,0,0,0,0,0
2.073332,0.3444016,1,0,0,0,0,0,0,0,0,0,0,0,0,0,0,0,0,0,0,0,-0.03320313,-1.025146,-0.002441406,0,0,0,0,0,0
2.076665,0.3444016,1,0,0,0,0,0,0,0,0,0,0,0,0,0,0,0,0,0,0,0,-0.03613281,-1.02124,-0.01452637,0,0,0,0,0,0
2.079998,0.3439986,1,0,0,0,0,0,0,0,0,0,0,0,0,0,0,0,0,0,0,0,-0.03552246,-1.018555,-0.02124023,0,0,0,0,0,0
2.083332,0.3583938,0.9649065,0,0,0,0,0,0,0,0,0,0,0,0,0,0,0,0,0,0,0,-0.02429199,-1.013062,-0.02636719,0,0,0,0,0,0
2.086665,0.3872322,0.9035419,0,0,0,0,0,0,0,0,0,0,0,0,0,0,0,0,0,0,0,-0.02258301,-1.003906,-0.02990723,0,0,0,0,0,0
2.089998,0.4150303,0.8339394,0,0,0,0,0,0,0,0,0,0,0,0,0,0,0,0,0,0,0,-0.02197266,-0.9899902,-0.02648926,0,0,0,0,0,0
2.093332,0.4570928,0.7490176,0,0,0,0,0,0,0,0,0,0,0,0,0,0,0,0,-0.02324125,-0.001499435,-0.01549417,-0.02526855,-0.9830322,-0.01733398,0,0,0,0,0,0
2.096665,0.4994003,0.6747622,0,0,0,0,0,0,0,0,0,0,0,0,0,0,0,0,-0.01822366,-0.001614755,-0.01407143,-0.0246582,-0.9873047,-0.01208496,0,0,0,0,0,0
2.099998,0.4994003,0.6747622,0,0,0,0,0,0,0,0,0,0,0,0,0,0,0,0,0,0,0,-0.0246582,-0.9873047,-0.01208496,0,0,0,0,0,0
2.103332,0.5334331,0.601531,0,0,0,0,0,0,0,0,0,0,0,0,0,0,0,0,0,0,0,-0.02770996,-1.002075,-0.003662109,0,0,0,0,0,0
2.106665,0.5693684,0.5467445,0,0,0,0,0,0,0,0,0,0,0,0,0,0,0,0,0,0,0,-0.03137207,-1.007446,-0.004394531,0,0,0,0,0,0
2.109998,0.5888391,0.4913243,0,0,0,0,0,0,0,0,0,0,0,0,0,0,0,0,0,0,0,-0.03210449,-1.008057,-0.004150391,0,0,0,0,0,0
2.113332,0.6189389,0.4538886,0,0,0,0,0,0,0,0,0,0,0,0,0,0,0,0,0,0,0,-0.02563477,-1.009399,0.007446289,0,0,0,0,0,0
2.116665,0.6409074,0.4160276,0,0,0,0,0,0,0,0,0,0,0,0,0,0,0,0,0,0,0,0.003295898,-1.021851,-0.001098633,0,0,0,0,0,0
2.119998,0.6552981,0.3856897,0,0,0,0,0,0,0,0,0,0,0,0,0,0,0,0,0,0,0,0.01916504,-1.015137,-0.01416016,0,0,0,0,0,0
2.123332,0.687667,0.3569856,0.01520453,0.002595896,0,0,0,0,0,0,0,0,0,0,0,0,0,0,0,0,0,0.02282715,-1.013916,-0.0234375,0,0,0,0,0,0
2.126665,0.7116699,0.3275941,0.06957007,0.009188499,0,0,0,0,0,0,0,0,0,0,0,0,0,0,0,0,0,0.0201416,-1.014648,-0.03112793,0,0,0,0,0,0
2.129998,0.7265195,0.2898549,0.1244286,0.0134,0,0,0,0,0,0,0,0,0,0,0,0,0,0,0,0,0,0.02416992,-1.007568,-0.04125977,0,0,0,0,0,0
2.133332,0.7604259,0.2610417,0.1978872,0.01710136,0,0,0,0,0,0,0,0,0,0,0,0,0,0,-0.02798946,-0.004248401,-0.001499435,0.0255127,-1.00354,-0.03979492,0,0,0,0,0,0
2.136665,0.7857436,0.2315476,0.2622995,0.01932733,0,0,0,0,0,0,0,0,0,0,0,0,0,0,-0.02249153,-0.003998494,0.002499059,0.02954102,-1.005005,-0.03649902,0,0,0,0,0,0
2.139998,0.7857436,0.2315476,0.2622995,0.01932733,0,0,0,0,0,0,0,0,0,0,0,0,0,0,0,0,0,0.02954102,-1.005005,-0.03649902,0,0,0,0,0,0
2.143332,0.8118327,0.2096282,0.3267757,0.0209856,0,0,0,0,0,0,0,0,0,0,0,0,0,0,0,0,0,0.02856445,-1.012085,-0.03564453,0,0,0,0,0,0
2.146665,0.838168,0.1875353,0.3912885,0.02226845,0,0,0,0,0,0,0,0,0,0,0,0,0,0,0,0,0,0.02441406,-1.018188,-0.03210449,0,0,0,0,0,0
2.149998,0.8555565,0.1649728,0.4649353,0.01672429,0,0,0,0,0,0,0,0,0,0,0,0,0,0,0,0,0,0.02038574,-1.017944,-0.03747559,0,0,0,0,0,0
2.153332,0.882551,0.1503035,0.5294457,0.01038129,0,0,0,0,0,0,0,0,0,0,0,0,0,0,0,0,0,0.01733398,-1.015625,-0.04223633,0,0,0,0,0,0
2.156665,0.9004585,0.135262,0.5940308,-0.01067121,0,0,0,0,0,0,0,0,0,0,0,0,0,0,0,0,0,0.01721191,-1.008789,-0.04345703,0,0,0,0,0,0
2.159998,0.9184455,0.1201342,0.6587247,-0.02547554,0,0,0,0,0,0,0,0,0,0,0,0,0,0,0,0,0,0.01513672,-1.004883,-0.03637695,0,0,0,0,0,0
2.163332,0.9366734,0.1127117,0.7142422,-0.0407081,0,0,0,0,0,0,0,0,0,0,0,0,0,0,0,0,0,0.01330566,-1.021362,-0.04077148,0,0,0,0,0,0
2.166665,0.9550873,0.1130512,0.7605721,-0.05619991,0,0,0,0,0,0,0,0,0,0,0,0,0,0,0,0,0,0.01586914,-1.012939,-0.04333496,0,0,0,0,0,0
2.169998,0.9733467,0.1055436,0.8069263,-0.07197934,0,0,0,0,0,0,0,0,0,0,0,0,0,0,0,0,0,0.01342773,-1.005493,-0.0435791,0,0,0,0,0,0
2.173331,0.9917692,0.105841,0.862671,-0.09585234,0,0,0,0,0,0,0,0,0,0,0,0,0,0,0.0007497177,0.0002499059,0.03698608,0.01330566,-0.9976807,-0.03869629,0,0,0,0,0,0
2.176665,1,0.1059862,0.9000421,-0.1197481,0,0,0,0,0,0,0,0,0,0,0,0,0,0,0.00549793,-0.0002499059,0.03698608,0.00793457,-0.994873,-0.03515625,0,0,0,0,0,0
2.179998,1,0.1059862,0.9000421,-0.1197481,0,0,0,0,0,0,0,0,0,0,0,0,0,0,0,0,0,0.00793457,-0.994873,-0.03515625,0,0,0,0,0,0
2.183331,1,0.09812176,0.9464392,-0.1363184,0,0,0,0,0,0,0,0,0,0,0,0,0,0,0,0,0,0.008789063,-0.9959717,-0.03088379,0,0,0,0,0,0
2.186665,1,0.09812176,0.9930453,-0.1609283,0,0,0,0,0,0,0,0,0,0,0,0,0,0,0,0,0,-0.003295898,-0.9945068,-0.02075195,0,0,0,0,0,0
2.189998,1,0.09812176,1,-0.1848525,0,0,0,0,0,0,0,0,0,0,0,0,0,0,0,0,0,-0.03308105,-0.9915771,-0.0279541,0,0,0,0,0,0
2.193331,1,0.09812176,1,-0.2006854,0,0,0,0,0,0,0,0,0,0,0,0,0,0,0,0,0,-0.08837891,-1.014648,-0.0002441406,0,0,0,0,0,0
2.196665,1,0.1059862,1,-0.2165419,0,0,0,0,0,0,0,0,0,0,0,0,0,0,0,0,0,-0.0567627,-1.036865,0.01281738,0,0,0,0,0,0
2.199998,1,0.1059862,1,-0.2324234,0,0,0,0,0,0,0,0,0,0,0,0,0,0,0,0,0,-0.02392578,-1.044434,0.01525879,0,0,0,0,0,0
2.203331,1,0.1217254,1,-0.2403741,0,0,0,0,0,0,0,0,0,0,0,0,0,0,0,0,0,-0.01367188,-1.049683,0.009887695,0,0,0,0,0,0
2.206665,1,0.1374799,1,-0.2483314,0,0,0,0,0,0,0,0,0,0,0,0,0,0,-0.02199351,0.008497493,0.008997345,-0.005981445,-1.045898,0.001464844,0,0,0,0,0,0
2.209998,1,0.1611441,1,-0.2562958,0,0,0,0,0,0,0,0,0,0,0,0,0,0,-0.02873918,0.007747083,0.006997366,-0.005737305,-1.039795,-0.009643555,0,0,0,0,0,0
2.213331,1,0.1848525,1,-0.2642672,0,0,0,0,0,0,0,0,0,0,0,0,0,0,-0.03148558,0.006497024,0.004248055,-0.01464844,-1.027466,-0.02416992,0,0,0,0,0,0
2.216665,1,0.1848525,1,-0.2642672,0,0,0,0,0,0,0,0,0,0,0,0,0,0,0,0,0,-0.01464844,-1.027466,-0.02416992,0,0,0,0,0,0
2.219998,1,0.2006854,1,-0.2642672,0,0,0,0,0,0,0,0,0,0,0,0,0,0,0,0,0,-0.02246094,-1.011597,-0.0390625,0,0,0,0,0,0
2.223331,1,0.2244794,1,-0.2642672,0,0,0,0,0,0,0,0,0,0,0,0,0,0,0,0,0,-0.02331543,-1.005005,-0.05639648,0,0,0,0,0,0
2.226665,1,0.2403741,1,-0.2642672,0,0,0,0,0,0,0,0,0,0,0,0,0,0,0,0,0,-0.01159668,-1.002563,-0.06811523,0,0,0,0,0,0
2.229998,1,0.2642672,1,-0.2642672,0,0,0,0,0,0,0,0,0,0,0,0,0,0,0,0,0,-0.001098633,-1.001709,-0.06750488,0,0,0,0,0,0
2.233331,1,0.2882255,1,-0.2642672,0,0,0,0,0,0,0,0,0,0,0,0,0,0,0,0,0,-0.001831055,-1.003296,-0.06274414,0,0,0,0,0,0
2.236665,1,0.3122526,1,-0.2642672,0,0,0,0,0,0,0,0,0,0,0,0,0,0,0,0,0,-0.0001220703,-1.002808,-0.05407715,0,0,0,0,0,0
2.239998,1,0.336352,1,-0.2642672,0,0,0,0,0,0,0,0,0,0,0,0,0,0,0,0,0,0.006469727,-1.000122,-0.05480957,0,0,0,0,0,0
2.243331,1,0.3605264,1,-0.2642672,0,0,0,0,0,0,0,0,0,0,0,0,0,0,0.01937706,-0.002768151,0.005536302,0.0111084,-1.001099,-0.05004883,0,0,0,0,0,0
2.246665,1,0.3928797,1,-0.2642672,0,0,0,0,0,0,0,0,0,0,0,0,0,0,0.02599021,-0.002998871,0.008746706,0.01086426,-1.001709,-0.04003906,0,0,0,0,0,0
2.249998,1,0.433522,1,-0.2642672,0,0,0,0,0,0,0,0,0,0,0,0,0,0,0.03073842,-0.002748965,0.01174558,0.01171875,-0.9971924,-0.03881836,0,0,0,0,0,0
2.253331,1,0.433522,1,-0.2642672,0,0,0,0,0,0,0,0,0,0,0,0,0,0,0,0,0,0.01171875,-0.9971924,-0.03881836,0,0,0,0,0,0
2.256665,1,0.4657205,1,-0.2642672,0,0,0,0,0,0,0,0,0,0,0,0,0,0,0,0,0,0.0111084,-0.9945068,-0.04187012,0,0,0,0,0,0
2.259998,1,0.5062566,1,-0.2642672,0,0,0,0,0,0,0,0,0,0,0,0,0,0,0,0,0,0.01245117,-0.9921875,-0.04541016,0,0,0,0,0,0
2.263331,0.9847108,0.5382023,1,-0.2642672,0,0,0,0,0,0,0,0,0,0,0,0,0,0,0,0,0,0.005859375,-0.9891357,-0.05090332,0,0,0,0,0,0
2.266665,0.9773847,0.5624949,1,-0.2642672,0,0,0,0,0,0,0,0,0,0,0,0,0,0,0,0,0,-0.001342773,-0.9921875,-0.05456543,0,0,0,0,0,0
2.269998,0.9695654,0.5785473,1,-0.2642672,0,0,0,0,0,0,0,0,0,0,0,0,0,0,0,0,0,-0.01037598,-0.9958496,-0.05371094,0,0,0,0,0,0
2.273331,0.9606686,0.5779957,1,-0.2642672,0,0,0,0,0,0,0,0,0,0,0,0,0,0,0,0,0,-0.02185059,-0.9991455,-0.0411377,0,0,0,0,0,0
2.276665,0.9612237,0.5863066,1,-0.2642672,0,0,0,0,0,0,0,0,0,0,0,0,0,0,0,0,0,-0.03198242,-1.019897,-0.02209473,0,0,0,0,0,0
2.279998,0.9612237,0.5863066,1,-0.2642672,0,0,0,0,0,0,0,0,0,0,0,0,0,0,0.05372977,-0.006997366,0.02349116,-0.03295898,-1.01001,-0.01049805,0,0,0,0,0,0
2.283331,0.9612237,0.5863066,1,-0.2642672,0,0,0,0,0,0,0,0,0,0,0,0,0,0,0.05223033,-0.009246519,0.02399097,-0.03552246,-1.013916,-0.005737305,0,0,0,0,0,0
2.286665,0.9612237,0.5863066,1,-0.2642672,0,0,0,0,0,0,0,0,0,0,0,0,0,0,0.05198043,-0.01074595,0.02399097,-0.02722168,-1.011841,0.001098633,0,0,0,0,0,0
2.289998,0.9612237,0.5863066,1,-0.2642672,0,0,0,0,0,0,0,0,0,0,0,0,0,0,0,0,0,-0.02722168,-1.011841,0.001098633,0,0,0,0,0,0
2.293331,0.9612237,0.5863066,1,-0.2642672,0,0,0,0,0,0,0,0,0,0,0,0,0,0,0,0,0,-0.01538086,-1.015015,0.00378418,0,0,0,0,0,0
2.296665,0.9617803,0.5946276,1,-0.2642672,0,0,0,0,0,0,0,0,0,0,0,0,0,0,0,0,0,-0.01477051,-1.016479,0.0002441406,0,0,0,0,0,0
2.299998,0.9617803,0.5946276,1,-0.2642672,0,0,0,0,0,0,0,0,0,0,0,0,0,0,0,0,0,-0.01586914,-1.019409,0.008300781,0,0,0,0,0,0
2.303331,0.9617803,0.5946276,1,-0.2642672,0,0,0,0,0,0,0,0,0,0,0,0,0,0,0,0,0,-0.02514648,-1.016846,0.01550293,0,0,0,0,0,0
2.306665,0.9617803,0.5946276,1,-0.2642672,0,0,0,0,0,0,0,0,0,0,0,0,0,0,0,0,0,-0.03356934,-1.024292,0.02172852,0,0,0,0,0,0
2.309998,0.9617803,0.5946276,0.9780402,-0.2553117,0,0,0,0,0,0,0,0,0,0,0,0,0,0,0,0,0,-0.03308105,-1.030518,0.02746582,0,0,0,0,0,0
2.313331,0.9617803,0.5946276,0.9323676,-0.2535728,0,0,0,0,0,0,0,0,0,0,0,0,0,0,0,0,0,-0.03173828,-1.037476,0.03076172,0,0,0,0,0,0
2.316665,0.9617803,0.5946276,0.8863676,-0.2438478,0,0,0,0,0,0,0,0,0,0,0,0,0,0,0,0,0,-0.03039551,-1.043945,0.03381348,0,0,0,0,0,0
2.319998,0.9617803,0.5946276,0.8316805,-0.2414556,0,0,0,0,0,0,0,0,0,0,0,0,0,0,0.03323749,0.004498306,0.01049605,-0.03051758,-1.043335,0.02929688,0,0,0,0,0,0
2.323331,0.9617803,0.5946276,0.8316805,-0.2414556,0,0,0,0,0,0,0,0,0,0,0,0,0,0,0,0,0,-0.03051758,-1.043335,0.02929688,0,0,0,0,0,0
2.326665,0.9534637,0.6023977,0.7125901,-0.2201194,0,0,0,0,0,0,0,0,0,0,0,0,0,0,0.01914638,0.006920377,0.004613584,-0.0291748,-1.041504,0.02185059,0,0,0,0,0,0
2.329998,0.9534637,0.6023977,0.7125901,-0.2201194,0,0,0,0,0,0,0,0,0,0,0,0,0,0,0,0,0,-0.0291748,-1.041504,0.02185059,0,0,0,0,0,0
2.333331,0.9534637,0.6023977,0.6022699,-0.1911396,0,0,0,0,0,0,0,0,0,0,0,0,0,0,0.0124953,0.008246895,0,-0.01708984,-1.032837,0.008056641,0,0,0,0,0,0
2.336665,0.9534637,0.6023977,0.6022699,-0.1911396,0,0,0,0,0,0,0,0,0,0,0,0,0,0,0,0,0,-0.01708984,-1.032837,0.008056641,0,0,0,0,0,0
2.339998,0.954028,0.6107376,0.5474799,-0.1801385,0,0,0,0,0,0,0,0,0,0,0,0,0,0,0,0,0,-0.01757813,-1.0271,0.004394531,0,0,0,0,0,0
2.343331,0.954028,0.6107376,0.4920985,-0.1617387,0,0,0,0,0,0,0,0,0,0,0,0,0,0,0,0,0,-0.01574707,-1.024536,-0.0004882813,0,0,0,0,0,0
2.346665,0.954028,0.6107376,0.4277411,-0.1425803,0,0,0,0,0,0,0,0,0,0,0,0,0,0,0,0,0,-0.01464844,-1.018921,-0.001220703,0,0,0,0,0,0
2.349998,0.9451655,0.6101702,0.3634434,-0.1232547,0,0,0,0,0,0,0,0,0,0,0,0,0,0,0,0,0,-0.01696777,-1.015137,0.001586914,0,0,0,0,0,0
2.353331,0.9457361,0.6185194,0.307146,-0.09840599,0,0,0,0,0,0,0,0,0,0,0,0,0,0,0,0,0,-0.01635742,-1.009766,0.0001220703,0,0,0,0,0,0
2.356665,0.9457361,0.6185194,0.2351512,-0.08378949,0,0,0,0,0,0,0,0,0,0,0,0,0,0,0,0,0,-0.01428223,-1.006958,0.0009765625,0,0,0,0,0,0
2.359998,0.9457361,0.6185194,0.1698419,-0.05816502,0,0,0,0,0,0,0,0,0,0,0,0,0,0,0,0,0,-0.009887695,-1.005005,-0.005615234,0,0,0,0,0,0
2.363331,0.9457361,0.6185194,0.1129435,-0.03517912,0,0,0,0,0,0,0,0,0,0,0,0,0,0,0,0,0,-0.005737305,-1.004395,-0.009521484,0,0,0,0,0,0
2.366665,0.9463074,0.6268787,0.04872335,-0.01555,0,0,0,0,0,0,0,0,0,0,0,0,0,0,0,0,0,-0.005371094,-0.9997559,-0.01098633,0,0,0,0,0,0
2.369998,0.9374622,0.6263045,0,0,0,0,0,0,0,0,0,0,0,0,0,0,0,0,0.01199548,-0.0004998118,0.001999247,-0.004882813,-1.001465,-0.01147461,0,0,0,0,0,0
2.373331,0.9380392,0.6346734,0,0,0,0,0,0,0,0,0,0,0,0,0,0,0,0,0.01449454,-0.002249153,0.002748965,-0.005004883,-0.9962158,-0.01403809,0,0,0,0,0,0
2.376665,0.9386168,0.6430523,0,0,0,0,0,0,0,0,0,0,0,0,0,0,0,0,0,0,0,0.01306152,-1.008789,-0.01818848,0,0,0,0,0,0
2.379998,0.9297888,0.6424721,0,0,0,0,0,0,0,0,0,0,0,0,0,0,0,0,0,0,0,0.006591797,-1.006714,-0.02307129,0,0,0,0,0,0
2.383331,0.9303717,0.6508609,0,0,0,0,0,0,0,0,0,0,0,0,0,0,0,0,0,0,0,-0.001098633,-1.006104,-0.01525879,0,0,0,0,0,0
2.386665,0.9221439,0.6586743,0,0,0,0,0,0,0,0,0,0,0,0,0,0,0,0,0,0,0,-0.008422852,-0.9968262,-0.01330566,0,0,0,0,0,0
2.389998,0.9139333,0.6664929,0,0,0,0,0,0,0,0,0,0,0,0,0,0,0,0,0,0,0,-0.01489258,-0.9963379,-0.008300781,0,0,0,0,0,0
2.393331,0.9063369,0.6827472,0,0,0,0,0,0,0,0,0,0,0,0,0,0,0,0,0,0,0,-0.01501465,-0.996582,-0.001342773,0,0,0,0,0,0
2.396665,0.8987648,0.6990393,0,0,0,0,0,0,0,0,0,0,0,0,0,0,0,0,0,0,0,-0.01660156,-0.9990234,0.002807617,0,0,0,0,0,0
2.399998,0.8906124,0.7068986,0,0,0,0,0,0,0,0,0,0,0,0,0,0,0,0,0,0,0,-0.01489258,-1.001099,0.009399414,0,0,0,0,0,0
2.403331,0.8830822,0.7232483,0,0,0,0,0,0,0,0,0,0,0,0,0,0,0,0,0,0,0,-0.02038574,-1.00708,0.01330566,0,0,0,0,0,0
2.406665,0.8662497,0.7305239,0,0,0,0,0,0,0,0,0,0,0,0,0,0,0,0,0,0,0,-0.03125,-1.009033,0.01599121,0,0,0,0,0,0
2.409998,0.8587738,0.7469335,0,0,0,0,0,0,0,0,0,0,0,0,0,0,0,0,0.04598268,-0.003248777,0.0127452,-0.02856445,-1.013672,0.01477051,0,0,0,0,0,0
2.413331,0.8507007,0.7548471,0,0,0,0,0,0,0,0,0,0,0,0,0,0,0,0,0.04152226,-0.002076113,0.01061124,-0.02807617,-1.015015,0.01135254,0,0,0,0,0,0
2.416665,0.8507007,0.7548471,0,0,0,0,0,0,0,0,0,0,0,0,0,0,0,0,0,0,0,-0.02807617,-1.015015,0.01135254,0,0,0,0,0,0
2.419998,0.8426419,0.7627706,0,0,0,0,0,0,0,0,0,0,0,0,0,0,0,0,0,0,0,-0.0267334,-1.016235,0.01000977,0,0,0,0,0,0
2.423331,0.8345971,0.7707045,0,0,0,0,0,0,0,0,0,0,0,0,0,0,0,0,0,0,0,-0.02526855,-1.020996,0.01403809,0,0,0,0,0,0
2.426665,0.826566,0.7786492,0,0,0,0,0,0,0,0,0,0,0,0,0,0,0,0,0,0,0,-0.03112793,-1.026367,0.01940918,0,0,0,0,0,0
2.429998,0.8185484,0.7866051,0,0,0,0,0,0,0,0,0,0,0,0,0,0,0,0,0,0,0,-0.03942871,-1.032471,0.01708984,0,0,0,0,0,0
2.433331,0.810544,0.7945727,0,0,0,0,0,0,0,0,0,0,0,0,0,0,0,0,0,0,0,-0.04101563,-1.03479,0.02197266,0,0,0,0,0,0
2.436665,0.8031714,0.8111632,0,0,0,0,0,0,0,0,0,0,0,0,0,0,0,0,0,0,0,-0.03771973,-1.035278,0.02685547,0,0,0,0,0,0
2.439998,0.7951917,0.8191673,0,0,0,0,0,0,0,0,0,0,0,0,0,0,0,0,0,0,0,-0.03027344,-1.033569,0.02416992,0,0,0,0,0,0
2.443331,0.7786492,0.826566,0,0,0,0,0,0,0,0,0,0,0,0,0,0,0,0,0,0,0,-0.02319336,-1.033569,0.01464844,0,0,0,0,0,0
2.446665,0.7707045,0.8345971,0,0,0,0,0,0,0,0,0,0,0,0,0,0,0,0,0.01349492,-0.0004998118,-0.002748965,-0.02246094,-1.029175,0.01818848,0,0,0,0,0,0
2.449998,0.771321,0.8432577,0,0,0,0,0,0,0,0,0,0,0,0,0,0,0,0,0.01124577,0,-0.002998871,-0.02001953,-1.027832,0.0189209,0,0,0,0,0,0
2.453331,0.771321,0.8432577,0,0,0,0,0,0,0,0,0,0,0,0,0,0,0,0,0,0,0,-0.02001953,-1.027832,0.0189209,0,0,0,0,0,0
2.456665,0.7633857,0.8513149,0,0,0,0,0,0,0,0,0,0,0,0,0,0,0,0,0,0,0,-0.0201416,-1.03479,0.02478027,0,0,0,0,0,0
2.459998,0.7554604,0.8593862,0,0,0,0,0,0,0,0,0,0,0,0,0,0,0,0,0,0,0,-0.02111816,-1.038208,0.02697754,0,0,0,0,0,0
2.463331,0.7560699,0.8680802,0,0,0,0,0,0,0,0,0,0,0,0,0,0,0,0,0,0,0,-0.0201416,-1.036865,0.03149414,0,0,0,0,0,0
2.466665,0.7481521,0.8761782,0,0,0,0,0,0,0,0,0,0,0,0,0,0,0,0,0,0,0,-0.02636719,-1.036011,0.03125,0,0,0,0,0,0
2.469998,0.7396386,0.8755721,0,0,0,0,0,0,0,0,0,0,0,0,0,0,0,0,0,0,0,-0.02722168,-1.036865,0.02685547,0,0,0,0,0,0
2.473331,0.7232483,0.8830822,0,0,0,0,0,0,0,0,0,0,0,0,0,0,0,0,0,0,0,-0.02648926,-1.03833,0.02233887,0,0,0,0,0,0
2.476665,0.7068986,0.8906124,0,0,0,0,0,0,0,0,0,0,0,0,0,0,0,0,0,0,0,-0.0267334,-1.035767,0.02502441,0,0,0,0,0,0
2.479998,0.6911871,0.9069334,0,0,0,0,0,0,0,0,0,0,0,0,0,0,0,0,0,0,0,-0.02575684,-1.035522,0.02392578,0,0,0,0,0,0
2.483331,0.6755022,0.9233196,0,0,0,0,0,0,0,0,0,0,0,0,0,0,0,0,-0.02374106,0.004498306,-0.006247648,-0.0234375,-1.034668,0.02575684,0,0,0,0,0,0
2.486665,0.6592598,0.9309547,0,0,0,0,0,0,0,0,0,0,0,0,0,0,0,0,-0.024452,0.004152226,-0.00599766,-0.02478027,-1.031616,0.02258301,0,0,0,0,0,0
2.489998,0.6592598,0.9309547,0,0,0,0,0,0,0,0,0,0,0,0,0,0,0,0,0,0,0,-0.02478027,-1.031616,0.02258301,0,0,0,0,0,0
2.493331,0.6268787,0.9463074,0,0,0,0,0,0,0,0,0,0,0,0,0,0,0,0,0,0,0,-0.01513672,-1.028076,0.01904297,0,0,0,0,0,0
2.496665,0.5940678,0.9529006,0,0,0,0,0,0,0,0,0,0,0,0,0,0,0,0,0,0,0,-0.03271484,-1.009277,0.0135498,0,0,0,0,0,0
2.499998,0.5531238,0.9590133,0,0,0,0,0,0,0,0,0,0,0,0,0,0,0,0,0,0,0,-0.04101563,-0.9969482,0.004150391,0,0,0,0,0,0
2.503331,0.5118763,0.956296,0,0,0,0,0,0,0,0,0,0,0,0,0,0,0,0,0,0,0,-0.03369141,-0.9920654,-0.007446289,0,0,0,0,0,0
2.506665,0.4627222,0.9531286,0,0,0,0,0,0,0,0,0,0,0,0,0,0,0,0,0,0,0,-0.02978516,-0.9963379,-0.009887695,0,0,0,0,0,0
2.509998,0.4144315,0.9591129,0,0,0,0,0,0,0,0,0,0,0,0,0,0,0,0,0,0,0,-0.02453613,-0.9938965,-0.005615234,0,0,0,0,0,0
2.513331,0.3664391,0.9653503,0,0,0,0,0,0,0,0,0,0,0,0,0,0,0,0,0,0,0,-0.02062988,-0.9952393,-0.006958008,0,0,0,0,0,0
2.516665,0.318308,0.9627835,0,0,0,0,0,0,0,0,0,0,0,0,0,0,0,0,0,0,0,-0.01831055,-0.9946289,-0.006103516,0,0,0,0,0,0
2.519998,0.2784469,0.9608378,0,0,0,0,0,0,0,0,0,0,0,0,0,0,0,0,0,0,0,-0.01660156,-0.9991455,0.002563477,0,0,0,0,0,0
2.523331,0.2387943,0.9590918,0,0,0,0,0,0,0,0,0,0,0,0,0,0,0,0,0.00549793,0.002249153,0.0004998118,-0.01928711,-1.002563,0.01330566,0,0,0,0,0,0
2.526664,0.1993304,0.9575674,0,0,0,0,0,0,0,0,0,0,0,0,0,0,0,0,0.004382906,0.001614755,0.0002306792,-0.01965332,-1.010498,0.01953125,0,0,0,0,0,0
2.529998,0.1678791,0.9565206,0,0,0,0,0,0,0,0,0,0,0,0,0,0,0,0,0.001249529,0.001749341,0.0007497177,-0.02258301,-1.010742,0.02172852,0,0,0,0,0,0
2.533331,0.1441398,0.9466475,0,0,0,0,0,0,0,0,0,0,0,0,0,0,0,0,-0.002249153,0.002249153,-0.0009996236,-0.02990723,-1.013062,0.02062988,0,0,0,0,0,0
2.536664,0.1441398,0.9466475,0,0,0,0,0,0,0,0,0,0,0,0,0,0,0,0,0,0,0,-0.02990723,-1.013062,0.02062988,0,0,0,0,0,0
2.539998,0.1279121,0.9186412,0,0,0,0,0,0,0,0,0,0,0,0,0,0,0,0,0,0,0,-0.03601074,-1.015381,0.01623535,0,0,0,0,0,0
2.543331,0.1193488,0.8816412,0,0,0,0,0,0,0,0,0,0,0,0,0,0,0,0,0,0,0,-0.04541016,-1.017578,0.009765625,0,0,0,0,0,0
2.546664,0.1106287,0.8354372,0,0,0,0,0,0,0,0,0,0,0,0,0,0,0,0,0,0,0,-0.05114746,-1.024902,0.001831055,0,0,0,0,0,0
2.549998,0.101524,0.7708305,0,0,0,0,0,0,0,0,0,0,0,0,0,0,0,0,0,0,0,-0.05212402,-1.030273,0.0006103516,0,0,0,0,0,0
2.553331,0.100118,0.7156581,0,0,0,0,0,0,0,0,0,0,0,0,0,0,0,0,0,0,0,-0.04663086,-1.036865,0.002197266,0,0,0,0,0,0
2.556664,0.09853122,0.6605241,0,0,0,0,0,0,0,0,0,0,0,0,0,0,0,0,0,0,0,-0.03881836,-1.043457,0.005981445,0,0,0,0,0,0
2.559998,0.0901009,0.6234982,0,0,0,0,0,0,0,0,0,0,0,0,0,0,0,0,0,0,0,-0.03173828,-1.043823,0.01135254,0,0,0,0,0,0
2.563331,0.08858705,0.5775875,0,0,0,0,0,0,0,0,0,0,0,0,0,0,0,0,0,0,0,-0.02587891,-1.039063,0.009643555,0,0,0,0,0,0
2.566664,0.07987954,0.5313726,0,0,0,0,0,0,0,0,0,0,0,0,0,0,0,0,0,0,0,-0.02099609,-1.029297,0.007080078,0,0,0,0,0,0
2.569998,0.07124556,0.4851483,0,0,0,0,0,0,0,0,0,0,0,0,0,0,0,0,0,0,0,-0.01660156,-1.018555,0.001342773,0,0,0,0,0,0
2.573331,0.06895327,0.430137,0,0,0,0,0,0,0,0,0,0,0,0,0,0,0,0,0,0,0,-0.01330566,-1.007202,-0.00769043,0,0,0,0,0,0
2.576664,0.06670978,0.3843754,0,0,0,0,0,0,0,0,0,0,0,0,0,0,0,0,0,0,0,-0.01428223,-1.000122,-0.01245117,0,0,0,0,0,0
2.579998,0.06350084,0.3295996,0,0,0,0,0,0,0,0,0,0,0,0,0,0,0,0,0,0,0,-0.01306152,-0.9989014,-0.009521484,0,0,0,0,0,0
2.583331,0.05439752,0.2834397,0,0,0,0,0,0,0,0,0,0,0,0,0,0,0,0,-0.01399473,-0.006497554,-0.02324125,-0.009399414,-0.9998779,-0.01062012,0,0,0,0,0,0
2.586664,0.05000648,0.228977,0,0,0,0,0,0,0,0,0,0,0,0,0,0,0,0,-0.01061124,-0.00599766,-0.02053045,-0.009521484,-1.000732,-0.01318359,0,0,0,0,0,0
2.589998,0.05000648,0.228977,0,0,0,0,0,0,0,0,0,0,0,0,0,0,0,0,0,0,0,-0.009521484,-1.000732,-0.01318359,0,0,0,0,0,0
2.593331,0.04538194,0.1839163,0,0,0,0,0,0,0,0,0,0,0,0,0,0,0,0,0,0,0,-0.01257324,-1.005981,-0.01037598,0,0,0,0,0,0
2.596664,0.03377942,0.1291566,0,0,0,0,0,0,0,0,0,0,0,0,0,0,0,0,0,0,0,-0.01501465,-1.009644,-0.005493164,0,0,0,0,0,0
2.599998,0.02453239,0.07648333,0,0,0,0,0,0,0,0,0,0,0,0,0,0,0,0,0,0,0,-0.0123291,-1.012695,-0.001220703,0,0,0,0,0,0
2.603331,0.01606657,0.04252915,0,0,0,0,0,0,0,0,0,0,0,0,0,0,0,0,0,0,0,-0.01293945,-1.015991,-0.0008544922,0,0,0,0,0,0
2.606664,0,0,0,0,0,0,0,0,0,0,0,0,0,0,0,0,0,0,0,0,0,-0.01196289,-1.015503,0.001342773,0,0,0,0,0,0
2.609998,0,0,0,0,0,0,0,0,0,0,0,0,0,0,0,0,0,0,0,0,0,-0.01220703,-1.015015,0.005493164,0,0,0,0,0,0
2.613331,0,0,0,0,0,0,0,0,0,0,0,0,0,0,0,0,0,0,0,0,0,-0.009765625,-1.017334,0.005126953,0,0,0,0,0,0
2.616664,0,0,0,0,0,0,0,0,0,0,0,0,0,0,0,0,0,0,0,0,0,-0.004760742,-1.03186,0.01733398,0,0,0,0,0,0
2.619998,0,0,0,0,0,0,0,0,0,0,0,0,0,0,0,0,0,0,0,0,0,0.004150391,-1.053711,0.03283691,0,0,0,0,0,0
2.623331,0,0,0,0,0,0,0,0,0,0,0,0,0,0,0,0,0,0,-0.03923523,-0.008746706,-0.01824313,0.004760742,-1.059937,0.03503418,0,0,0,0,0,0
2.626664,0,0,0,0,0,0,0,0,0,0,0,0,0,0,0,0,0,0,-0.04998118,-0.008246895,-0.01899285,0.01135254,-1.052124,0.03222656,0,0,0,0,0,0
2.629998,0,0,0,0,0,0,0,0,0,0,0,0,0,0,0,0,0,0,0,0,0,0.01135254,-1.052124,0.03222656,0,0,0,0,0,0
2.633331,0,0,0,0,0,0,0,0,0,0,0,0,0,0,0,0,0,0,0,0,0,0.008056641,-1.052979,0.02514648,0,0,0,0,0,0
2.636664,0,0,0,0,0,0,0,0,0,0,0,0,0,0,0,0,0,0,0,0,0,0.004150391,-1.051758,0.01672363,0,0,0,0,0,0
2.639998,0,0,0,0,0,0,0,0,0,0,0,0,0,0,0,0,0,0,0,0,0,0.0001220703,-1.055298,0.01098633,0,0,0,0,0,0
2.643331,0,0,0,0,0,0,0,0,0,0,0,0,0,0,0,0,0,0,0,0,0,-0.0008544922,-1.058472,0.008544922,0,0,0,0,0,0
2.646664,0,0,0,0,0,0,0,0,0,0,0,0,0,0,0,0,0,0,0,0,0,-0.0006103516,-1.054688,-0.001098633,0,0,0,0,0,0
2.649998,0,0,0,0,0,0,0,0,0,0,0,0,0,0,0,0,0,0,0,0,0,-0.002319336,-1.057739,-0.003295898,0,0,0,0,0,0
2.653331,0,0,0,0,0,0,0,0,0,0,0,0,0,0,0,0,0,0,0,0,0,-0.01025391,-1.054932,-0.008422852,0,0,0,0,0,0
2.656664,0,0,0,0,0,0,0,0,0,0,0,0,0,0,0,0,0,0,0,0,0,-0.003540039,-1.035156,-0.01489258,0,0,0,0,0,0
2.659998,0,0,0,0,0,0,0,0,0,0,0,0,0,0,0,0,0,0,-0.08720444,0.003460494,-0.01614897,-0.002441406,-1.020996,-0.02392578,0,0,0,0,0,0
2.663331,0,0,0,0,0,0,0,0,0,0,0,0,0,0,0,0,0,0,-0.09146556,0.002998871,-0.01874294,-0.004638672,-1.012695,-0.0345459,0,0,0,0,0,0
2.666664,0,0,0,0,0,0,0,0,0,0,0,0,0,0,0,0,0,0,-0.08746707,0.002499059,-0.01899285,0.003295898,-1.005615,-0.04260254,0,0,0,0,0,0
2.669998,0,0,0,0,0,0,0,0,0,0,0,0,0,0,0,0,0,0,-0.07681619,0.002076113,-0.01637823,0.001342773,-0.9992676,-0.04528809,0,0,0,0,0,0
2.673331,0,0,0,0,0,0,0,0,0,0,0,0,0,0,0,0,0,0,0,0,0,0.001342773,-0.9992676,-0.04528809,0,0,0,0,0,0
2.676664,0,0,0,0,0,0,0,0,0,0,0,0,0,0,0,0,0,0,0,0,0,-0.001098633,-0.9875488,-0.04760742,0,0,0,0,0,0
2.679998,0,0,0,0,0,0,0,0,0,0,0,0,0,0,0,0,0,0,0,0,0,-0.00390625,-0.9814453,-0.04980469,0,0,0,0,0,0
2.683331,0,0,0,0,0,0,0,0,0,0,0,0,0,0,0,0,0,0,0,0,0,-0.004760742,-0.9674072,-0.04650879,0,0,0,0,0,0
2.686664,0,0,0,0,0,0,0,0,0,0,0,0,0,0,0,0,0,0,0,0,0,-0.005981445,-0.9659424,-0.04541016,0,0,0,0,0,0
2.689998,0,0,0,0,0,0,0,0,0,0,0,0,0,0,0,0,0,0,0,0,0,-0.004638672,-0.9602051,-0.04577637,0,0,0,0,0,0
2.693331,0,0,0,0,0,0,0,0,0,0,0,0,0,0,0,0,0,0,0,0,0,-0.00378418,-0.9559326,-0.04187012,0,0,0,0,0,0
2.696664,0,0,0,0,0,0,0,0,0,0,0,0,0,0,0,0,0,0,0,0,0,-0.0009765625,-0.9547119,-0.04150391,0,0,0,0,0,0
2.699998,0,0,0,0,0,0,0,0,0,0,0,0,0,0,0,0,0,0,0,0,0,-0.001098633,-0.9519043,-0.04577637,0,0,0,0,0,0
2.703331,0,0,0,0,0,0,0,0,0,0,0,0,0,0,0,0,0,0,0,0,0,-0.0008544922,-0.9510498,-0.04211426,0,0,0,0,0,0
2.706664,0,0,0,0,0,0,0,0,0,0,0,0,0,0,0,0,0,0,0,0,0,-0.003295898,-0.9523926,-0.03686523,0,0,0,0,0,0
2.709998,0,0,0,0,0,0,0,0,0,0,0,0,0,0,0,0,0,0,0,0,0,-0.0008544922,-0.9570313,-0.03417969,0,0,0,0,0,0
2.713331,0,0,0,0,0,0,0,0,0,0,0,0,0,0,0,0,0,0,-0.002998627,-0.00224897,0.0007496566,-0.0006103516,-0.9571533,-0.03527832,0,0,0,0,0,0
2.716664,0,0,0,0,0,0,0,0,0,0,0,0,0,0,0,0,0,0,0.001749341,-0.002499059,0.001749341,0,-0.9589844,-0.03356934,0,0,0,0,0,0
2.719998,0,0,0,0,0,0,0,0,0,0,0,0,0,0,0,0,0,0,0,0,0,0,-0.9589844,-0.03356934,0,0,0,0,0,0
2.723331,0,0,0,0,0,0,0,0,0,0,0,0,0,0,0,0,0,0,0,0,0,0.001708984,-0.9613037,-0.03149414,0,0,0,0,0,0
2.726664,0,0,0,0,0,0,0,0,0,0,0,0,0,0,0,0,0,0,0,0,0,-0.0001220703,-0.9637451,-0.03259277,0,0,0,0,0,0
2.729998,0,0,0,0,0,0,0,0,0,0,0,0,0,0,0,0,0,0,0,0,0,0.007080078,-0.9699707,-0.03381348,0,0,0,0,0,0
2.733331,0,0,0,0,0,0,0,0,0,0,0,0,0,0,0,0,0,0,0,0,0,0.007446289,-0.9754639,-0.03259277,0,0,0,0,0,0
2.736664,0,0,0,0,0,0,0,0,0,0,0,0,0,0,0,0,0,0,0,0,0,0.006103516,-0.9844971,-0.02807617,0,0,0,0,0,0
2.739998,0,0,0,0,0,0,0,0,0,0,0,0,0,0,0,0,0,0,0,0,0,0.002563477,-0.987915,-0.02661133,0,0,0,0,0,0
2.743331,0,0,0,0,0,0,0,0,0,0,0,0,0,0,0,0,0,0,0,0,0,-0.001708984,-0.9953613,-0.02355957,0,0,0,0,0,0
2.746664,0,0,0,0,0,0,0,0,0,0,0,0,0,0,0,0,0,0,0.02299134,-0.003748589,0.0127452,-0.005981445,-1.002686,-0.02331543,0,0,0,0,0,0
2.749998,0,0,0,0,0,0,0,0,0,0,0,0,0,0,0,0,0,0,0.02249153,-0.002998871,0.01224539,-0.009399414,-1.011841,-0.02185059,0,0,0,0,0,0
2.753331,0,0,0,0,0,0,0,0,0,0,0,0,0,0,0,0,0,0,0,0,0,-0.009399414,-1.011841,-0.02185059,0,0,0,0,0,0
2.756664,0,0,0,0,0,0,0,0,0,0,0,0,0,0,0,0,0,0,0,0,0,-0.01208496,-1.02124,-0.0213623,0,0,0,0,0,0
2.759998,0,0,0,0,0,0,0,0,0,0,0,0,0,0,0,0,0,0,0,0,0,-0.01647949,-1.026367,-0.0222168,0,0,0,0,0,0
2.763331,0,0,0,0,0,0,0,0,0,0,0,0,0,0,0,0,0,0,0,0,0,-0.01843262,-1.032715,-0.02233887,0,0,0,0,0,0
2.766664,0,0,0,0,0,0,0,0,0,0,0,0,0,0,0,0,0,0,0,0,0,-0.01696777,-1.035278,-0.02697754,0,0,0,0,0,0
2.769998,0,0,0,0,0,0,0,0,0,0,0,0,0,0,0,0,0,0,0,0,0,-0.02075195,-1.041504,-0.02893066,0,0,0,0,0,0
2.773331,0,0,0,0,0,0,0,0,0,0,0,0,0,0,0,0,0,0,0,0,0,-0.01953125,-1.046997,-0.02636719,0,0,0,0,0,0
2.776664,0,0,0,0,0,0,0,0,0,0,0,0,0,0,0,0,0,0,0,0,0,-0.01806641,-1.049438,-0.02746582,0,0,0,0,0,0
2.779998,0,0,0,0,0,0,0,0,0,0,0,0,0,0,0,0,0,0,0,0,0,-0.01672363,-1.051025,-0.02905273,0,0,0,0,0,0
2.783331,0,0,0,0,0,0,0,0,0,0,0,0,0,0,0,0,0,0,0.004998118,-0.004248401,-0.001999247,-0.0177002,-1.046997,-0.02453613,0,0,0,0,0,0
2.786664,0,0,0,0,0,0,0,0,0,0,0,0,0,0,0,0,0,0,0.004998118,-0.003248777,-0.001499435,-0.01696777,-1.044556,-0.02661133,0,0,0,0,0,0
2.789998,0,0,0,0,0,0,0,0,0,0,0,0,0,0,0,0,0,0,0.004498306,-0.003248777,-0.001749341,-0.01403809,-1.041748,-0.02392578,0,0,0,0,0,0
2.793331,0,0,0,0,0,0,0,0,0,0,0,0,0,0,0,0,0,0,0.003690868,-0.002768151,-0.002306792,-0.01293945,-1.034912,-0.02392578,0,0,0,0,0,0
2.796664,0,0,0,0,0,0,0,0,0,0,0,0,0,0,0,0,0,0,0.003998494,-0.002998871,-0.001999247,-0.01196289,-1.030273,-0.02160645,0,0,0,0,0,0
2.799998,0,0,0,0,0,0,0,0,0,0,0,0,0,0,0,0,0,0,0,0,0,-0.01196289,-1.030273,-0.02160645,0,0,0,0,0,0
2.803331,0,0,0,0,0,0,0,0,0,0,0,0,0,0,0,0,0,0,0,0,0,-0.01098633,-1.030884,-0.01574707,0,0,0,0,0,0
2.806664,0,0,0,0,0,0,0,0,0,0,0,0,0,0,0,0,0,0,0,0,0,-0.01000977,-1.029419,-0.006469727,0,0,0,0,0,0
2.809998,0,0,0,0,0,0,0,0,0,0,0,0,0,0,0,0,0,0,0,0,0,-0.01074219,-1.022827,-0.008422852,0,0,0,0,0,0
2.813331,0,0,0,0,0,0,0,0,0,0,0,0,0,0,0,0,0,0,0,0,0,-0.008422852,-1.013062,-0.01025391,0,0,0,0,0,0
2.816664,0,0,0,0,0,0,0,0,0,0,0,0,0,0,0,0,0,0,0,0,0,-0.005004883,-1.007202,-0.01342773,0,0,0,0,0,0
2.819998,0,0,0,0,0,0,0,0,0,0,0,0,0,0,0,0,0,0,0,0,0,-0.003540039,-0.9971924,-0.0189209,0,0,0,0,0,0
2.823331,0,0,0,0,0,0,0,0,0,0,0,0,0,0,0,0,0,0,0,0,0,-0.004882813,-0.9866943,-0.02124023,0,0,0,0,0,0
2.826664,0,0,0,0,0,0,0,0,0,0,0,0,0,0,0,0,0,0,0.003460494,0.001384198,0.003691193,-0.002075195,-0.9853516,-0.02258301,0,0,0,0,0,0
2.829998,0,0,0,0,0,0,0,0,0,0,0,0,0,0,0,0,0,0,0.00674746,0.001999247,0.005997742,-0.002685547,-0.9819336,-0.02197266,0,0,0,0,0,0
2.833331,0,0,0,0,0,0,0,0,0,0,0,0,0,0,0,0,0,0,0,0,0,-0.002685547,-0.9819336,-0.02197266,0,0,0,0,0,0
2.836664,0,0,0,0,0,0,0,0,0,0,0,0,0,0,0,0,0,0,0,0,0,0.0007324219,-0.980957,-0.02294922,0,0,0,0,0,0
2.839998,0,0,0,0,0,0,0,0,0,0,0,0,0,0,0,0,0,0,0,0,0,0,-0.9852295,-0.02209473,0,0,0,0,0,0
2.843331,0,0,0,0,0,0,0,0,0,0,0,0,0,0,0,0,0,0,0,0,0,0.0009765625,-0.9844971,-0.02148438,0,0,0,0,0,0
2.846664,0,0,0,0,0,0,0,0,0,0,0,0,0,0,0,0,0,0,0,0,0,0.005126953,-0.9833984,-0.02001953,0,0,0,0,0,0
2.849998,0,0,0,0,0,0,0,0,0,0,0,0,0,0,0,0,0,0,0,0,0,0.006835938,-0.9851074,-0.02087402,0,0,0,0,0,0
2.853331,0,0,0,0,0,0,0,0,0,0,0,0,0,0,0,0,0,0,0,0,0,0.009155273,-0.9842529,-0.01843262,0,0,0,0,0,0
2.856664,0,0,0,0,0,0,0,0,0,0,0,0,0,0,0,0,0,0,0,0,0,0.01074219,-0.9822998,-0.02429199,0,0,0,0,0,0
2.859998,0,0,0,0,0,0,0,0,0,0,0,0,0,0,0,0,0,0,0,0,0,0.01037598,-0.9804688,-0.02612305,0,0,0,0,0,0
2.863331,0,0,0,0,0,0,0,0,0,0,0,0,0,0,0,0,0,0,0,0,0,0.01416016,-0.9827881,-0.02941895,0,0,0,0,0,0
2.866664,0,0,0,0,0,0,0,0,0,0,0,0,0,0,0,0,0,0,0,0,0,0.01049805,-0.9805908,-0.03503418,0,0,0,0,0,0
2.869998,0,0,0,0,0,0,0,0,0,0,0,0,0,0,0,0,0,0,0.03798879,0.004498673,0.03024108,0.006347656,-0.9799805,-0.03308105,0,0,0,0,0,0
2.873331,0,0,0,0,0,0,0,0,0,0,0,0,0,0,0,0,0,0,0,0,0,0.00378418,-0.9865723,-0.03295898,0,0,0,0,0,0
2.876664,0,0,0,0,0,0,0,0,0,0,0,0,0,0,0,0,0,0,0,0,0,0.001831055,-0.9946289,-0.03063965,0,0,0,0,0,0
2.879997,0,0,0,0,0,0,0,0,0,0,0,0,0,0,0,0,0,0,0,0,0,-0.003662109,-0.9973145,-0.03088379,0,0,0,0,0,0
2.883331,0,0,0,0,0,0,0,0,0,0,0,0,0,0,0,0,0,0,0,0,0,-0.01538086,-1.000854,-0.03063965,0,0,0,0,0,0
2.886664,0,0,0,0,0,0,0,0,0,0,0,0,0,0,0,0,0,0,0,0,0,-0.02600098,-1.00293,-0.02856445,0,0,0,0,0,0
2.889997,0,0,0,0,0,0,0,0,0,0,0,0,0,0,0,0,0,0,0,0,0,-0.03259277,-1.005249,-0.02697754,0,0,0,0,0,0
2.893331,0,0,0,0,0,0,0,0,0,0,0,0,0,0,0,0,0,0,0,0,0,-0.03295898,-1.017822,-0.02490234,0,0,0,0,0,0
2.896664,0,0,0,0,0,0,0,0,0,0,0,0,0,0,0,0,0,0,0,0,0,-0.03979492,-1.021362,-0.02929688,0,0,0,0,0,0
2.899997,0,0,0,0,0,0,0,0,0,0,0,0,0,0,0,0,0,0,0,0,0,-0.04199219,-1.026001,-0.02087402,0,0,0,0,0,0
2.903331,0,0,0,0,0,0,0,0,0,0,0,0,0,0,0,0,0,0,0.04682788,0.00322951,0.02791219,-0.04504395,-1.031982,-0.02062988,0,0,0,0,0,0
2.906664,0,0,0,0,0,0,0,0,0,0,0,0,0,0,0,0,0,0,0.04823184,0.002499059,0.02773956,-0.04760742,-1.035889,-0.01855469,0,0,0,0,0,0
2.909997,0,0,0,0,0,0,0,0,0,0,0,0,0,0,0,0,0,0,0,0,0,-0.04760742,-1.035889,-0.01855469,0,0,0,0,0,0
2.913331,0,0,0,0,0,0,0,0,0,0,0,0,0,0,0,0,0,0,0,0,0,-0.04663086,-1.033203,-0.01611328,0,0,0,0,0,0
2.916664,0,0,0,0,0,0,0,0,0,0,0,0,0,0,0,0,0,0,0,0,0,-0.04492188,-1.028809,-0.01184082,0,0,0,0,0,0
2.919997,0,0,0,0,0,0,0,0,0,0,0,0,0,0,0,0,0,0,0,0,0,-0.0447998,-1.022827,-0.01416016,0,0,0,0,0,0
2.923331,0,0,0,0,0,0,0,0,0,0,0,0,0,0,0,0,0,0,0,0,0,-0.04272461,-1.016479,-0.007324219,0,0,0,0,0,0
2.926664,0,0,0,0,0,0,0,0,0,0,0,0,0,0,0,0,0,0,0,0,0,-0.04138184,-1.009399,-0.003173828,0,0,0,0,0,0
2.929997,0,0,0,0,0,0,0,0,0,0,0,0,0,0,0,0,0,0,0,0,0,-0.04064941,-1.00708,-0.0001220703,0,0,0,0,0,0
2.933331,0,0,0,0,0,0,0,0,0,0,0,0,0,0,0,0,0,0,0,0,0,-0.03613281,-1.007446,0.002563477,0,0,0,0,0,0
2.936664,0,0,0,0,0,0,0,0,0,0,0,0,0,0,0,0,0,0,0,0,0,-0.03344727,-1.013184,0.003662109,0,0,0,0,0,0
2.939997,0,0,0,0,0,0,0,0,0,0,0,0,0,0,0,0,0,0,0.04323372,-0.001999247,0,-0.03125,-1.014282,0.008911133,0,0,0,0,0,0
2.943331,0,0,0,0,0,0,0,0,0,0,0,0,0,0,0,0,0,0,0.04013819,-0.001384075,-0.000922717,-0.02880859,-1.010376,0.01403809,0,0,0,0,0,0
2.946664,0,0,0,0,0,0,0,0,0,0,0,0,0,0,0,0,0,0,0,0,0,-0.02880859,-1.010376,0.01403809,0,0,0,0,0,0
2.949997,0,0,0,0,0,0,0,0,0,0,0,0,0,0,0,0,0,0,0,0,0,-0.02282715,-1.007202,0.0255127,0,0,0,0,0,0
2.953331,0,0,0,0,0,0,0,0,0,0,0,0,0,0,0,0,0,0,0,0,0,-0.02087402,-1.001343,0.03344727,0,0,0,0,0,0
2.956664,0,0,0,0,0,0,0,0,0,0,0,0,0,0,0,0,0,0,0,0,0,-0.03076172,-1.005859,0.03100586,0,0,0,0,0,0
2.959997,0,0,0,0,0,0,0,0,0,0,0,0,0,0,0,0,0,0,0,0,0,-0.03771973,-1.016357,0.03186035,0,0,0,0,0,0
2.963331,0,0,0,0,0,0,0,0,0,0,0,0,0,0,0,0,0,0,0,0,0,-0.03771973,-1.035278,0.0333252,0,0,0,0,0,0
2.966664,0,0,0,0,0,0,0,0,0,0,0,0,0,0,0,0,0,0,0,0,0,-0.02819824,-1.035034,0.04577637,0,0,0,0,0,0
2.969997,0,0,0,0,0,0,0,0,0,0,0,0,0,0,0,0,0,0,0,0,0,-0.01928711,-1.025513,0.0402832,0,0,0,0,0,0
2.973331,0,0,0,0,0,0,0,0,0,0,0,0,0,0,0,0,0,0,0,0,0,-0.01745605,-1.015259,0.0255127,0,0,0,0,0,0
2.976664,0,0,0,0,0,0,0,0,0,0,0,0,0,0,0,0,0,0,0.02144939,-0.00161447,-0.008072349,-0.01550293,-1.006836,0.02062988,0,0,0,0,0,0
2.979997,0,0,0,0,0,0,0,0,0,0,0,0,0,0,0,0,0,0,0.02149191,-0.003498683,-0.009246519,-0.01635742,-1.009888,0.0177002,0,0,0,0,0,0
2.983331,0,0,0,0,0,0,0,0,0,0,0,0,0,0,0,0,0,0,0,0,0,-0.01635742,-1.009888,0.0177002,0,0,0,0,0,0
2.986664,0,0,0,0,0,0,0,0,0,0,0,0,0,0,0,0,0,0,0,0,0,-0.01550293,-1.011108,0.01342773,0,0,0,0,0,0
2.989997,0,0,0,0,0,0,0,0,0,0,0,0,0,0,0,0,0,0,0,0,0,-0.01599121,-1.027954,0.01757813,0,0,0,0,0,0
2.993331,0,0,0,0,0,0,0,0,0,0,0,0,0,0,0,0,0,0,0,0,0,-0.01428223,-1.037964,0.03369141,0,0,0,0,0,0
2.996664,0,0,0,0,0,0,0,0,0,0,0,0,0,0,0,0,0,0,0,0,0,-0.01513672,-1.043213,0.05236816,0,0,0,0,0,0
2.999997,0,0,0,0,0,0,0,0,0,0,0,0,0,0,0,0,0,0,0,0,0,-0.01647949,-1.045532,0.0604248,0,0,0,0,0,0
3.003331,0,0,0,0,0,0,0,0,0,0,0,0,0,0,0,0,0,0,0,0,0,-0.01916504,-1.038818,0.06164551,0,0,0,0,0,0
3.006664,0,0,0,0,0,0,0,0,0,0,0,0,0,0,0,1,0,0,0,0,0,-0.02380371,-1.039185,0.06799316,0,0,0,0,0,0
3.009997,0,0,0,0,0,0,0,0,0,0,0,0,0,0,0,1,0,0,0,0,0,-0.02246094,-1.053345,0.06286621,0,0,0,0,0,0
3.013331,0,0,0,0,0,0,0,0,0,0,0,0,0,0,0,1,0,0,0,0,0,-0.02258301,-1.065308,0.05700684,0,0,0,0,0,0
3.016664,0,0,0,0,0,0,0,0,0,0,0,0,0,0,0,1,0,0,0,0,0,-0.01623535,-1.071289,0.03967285,0,0,0,0,0,0
3.019997,0,0,0,0,0,0,0,0,0,0,0,0,0,0,0,1,0,0,0,0,0,-0.006347656,-1.061035,0.006103516,0,0,0,0,0,0
3.023331,0,0,0,0,0,0,0,0,0,0,0,0,0,0,0,1,0,0,0,0,0,-0.002807617,-1.050171,-0.01855469,0,0,0,0,0,0
3.026664,0,0,0,0,0,0,0,0,0,0,0,0,0,0,0,1,0,0,-0.03506324,-0.002537472,-0.004613584,-0.001708984,-1.049316,-0.03186035,0,0,0,0,0,0
3.029997,0,0,0,0,0,0,0,0,0,0,0,0,0,0,0,1,0,0,-0.03948513,-0.00549793,-0.005997742,-0.00402832,-1.049561,-0.04040527,0,0,0,0,0,0
3.033331,0,0,0,0,0,0,0,0,0,0,0,0,0,0,0,1,0,0,-0.03948513,-0.007497177,-0.007996988,-0.007446289,-1.038574,-0.04174805,0,0,0,0,0,0
3.036664,0,0,0,0,0,0,0,0,0,0,0,0,0,0,0,1,0,0,-0.03437121,-0.007612415,-0.008073773,-0.008911133,-1.030273,-0.03381348,0,0,0,0,0,0
3.039997,0,0,0,0,0,0,0,0,0,0,0,0,0,0,0,1,0,0,0,0,0,-0.008911133,-1.030273,-0.03381348,0,0,0,0,0,0
3.043331,0,0,0,0,0,0,0,0,0,0,0,0,0,0,0,1,0,0,0,0,0,-0.0078125,-1.026611,-0.02819824,0,0,0,0,0,0
3.046664,0,0,0,0,0,0,0,0,0,0,0,0,0,0,0,1,0,0,0,0,0,-0.006347656,-1.017944,-0.02758789,0,0,0,0,0,0
3.049997,0,0,0,0,0,0,0,0,0,0,0,0,0,0,0,1,0,0,0,0,0,-0.004638672,-1.009277,-0.02490234,0,0,0,0,0,0
3.053331,0,0,0,0,0,0,0,0,0,0,0,0,0,0,0,1,0,0,0,0,0,-0.001831055,-0.9979248,-0.02502441,0,0,0,0,0,0
3.056664,0,0,0,0,0,0,0,0,0,0,0,0,0,0,0,1,0,0,0,0,0,-0.00390625,-1.001587,-0.03186035,0,0,0,0,0,0
3.059997,0,0,0,0,0,0,0,0,0,0,0,0,0,0,0,1,0,0,0,0,0,-0.001831055,-1.007935,-0.03674316,0,0,0,0,0,0
3.063331,0,0,0,0,0,0,0,0,0,0,0,0,0,0,0,1,0,0,0,0,0,-0.002685547,-1.008423,-0.03356934,0,0,0,0,0,0
3.066664,0,0,0,0,0,0,0,0,0,0,0,0,0,0,0,1,0,0,0,0,0,-0.006591797,-1.00415,-0.02734375,0,0,0,0,0,0
3.069997,0,0,0,0,0,0,0,0,0,0,0,0,0,0,0,1,0,0,0,0,0,-0.008056641,-0.9921875,-0.01733398,0,0,0,0,0,0
3.073331,0,0,0,0,0,0,0,0,0,0,0,0,0,0,0,1,0,0,0,0,0,-0.009155273,-0.9812012,-0.00769043,0,0,0,0,0,0
3.076664,0,0,0,0,0,0,0,0,0,0,0,0,0,0,0,1,0,0,0,0,0,-0.009399414,-0.9699707,-0.006469727,0,0,0,0,0,0
3.079997,0,0,0,0,0,0,0,0,0,0,0,0,0,0,0,1,0,0,0.002499059,-0.001249529,-0.0004998118,-0.006835938,-0.9689941,-0.00769043,0,0,0,0,0,0
3.083331,0,0,0,0,0,0,0,0,0,0,0,0,0,0,0,1,0,0,0.009496424,0.0007497177,0.001249529,-0.002563477,-0.9659424,-0.01367188,0,0,0,0,0,0
3.086664,0,0,0,0,0,0,0,0,0,0,0,0,0,0,0,1,0,0,0,0,0,-0.002563477,-0.9659424,-0.01367188,0,0,0,0,0,0
3.089997,0,0,0,0,0,0,0,0,0,0,0,0,0,0,0,1,0,0,0,0,0,0.003295898,-0.9674072,-0.02233887,0,0,0,0,0,0
3.093331,0,0,0,0,0,0,0,0,0,0,0,0,0,0,0,1,0,0,0,0,0,0,-0.9630127,-0.02636719,0,0,0,0,0,0
3.096664,0,0,0,0,0,0,0,0,0,0,0,0,0,0,0,1,0,0,0,0,0,-0.0003662109,-0.9637451,-0.01757813,0,0,0,0,0,0
3.099997,0,0,0,0,0,0,0,0,0,0,0,0,0,0,0,1,0,0,0,0,0,-0.001464844,-0.9719238,-0.01391602,0,0,0,0,0,0
3.103331,0,0,0,0,0,0,0,0,0,0,0,0,0,0,0,1,0,0,0,0,0,-0.0006103516,-0.9782715,-0.008789063,0,0,0,0,0,0
3.106664,0,0,0,0,0,0,0,0,0,0,0,0,0,0,0,0,0,0,0,0,0,-0.006469727,-0.9902344,-0.002929688,0,0,0,0,0,0
3.109997,0,0,0,0,0,0,0,0,0,0,0,0,0,0,0,0,0,0,0,0,0,-0.01806641,-0.9967041,0.002563477,0,0,0,0,0,0
3.113331,0,0,0,0,0,0,0,0,0,0,0,0,0,0,0,0,0,0,0.01399473,0,0.003748589,-0.02233887,-1.008179,0.01184082,0,0,0,0,0,0
3.116664,0,0,0,0,0,0,0,0,0,0,0,0,0,0,0,0,0,0,0.00549793,0.0004998118,0.002249153,-0.0279541,-1.040894,0.03173828,0,0,0,0,0,0
3.119997,0,0,-0.01268743,0,0,0,0,0,0,0,0,0,0,0,0,0,0,0,-0.004844264,0.002537472,0.002306792,-0.02502441,-1.044434,0.03601074,0,0,0,0,0,0
3.123331,0,0,-0.01268743,0,0,0,0,0,0,0,0,0,0,0,0,0,0,0,0,0,0,-0.02502441,-1.044434,0.03601074,0,0,0,0,0,0
3.126664,0,0,-0.04040901,-0.0008597663,0,0,0,0,0,0,0,0,0,0,0,0,0,0,0,0,0,-0.03112793,-1.023193,0.03100586,0,0,0,0,0,0
3.129997,0,0,-0.08674909,-0.004565742,0,0,0,0,0,0,0,0,0,0,0,0,0,0,0,0,0,-0.02246094,-1.096802,-0.03833008,0,0,0,0,0,0
3.133331,0,0,-0.1239339,-0.009533376,0,0,0,0,0,0,0,0,0,0,0,0,0,0,0,0,0,-0.03417969,-0.9989014,-0.015625,0,0,0,0,0,0
3.136664,0,0,-0.1519472,-0.01498071,0,0,0,0,0,0,0,0,0,0,0,0,0,0,0,0,0,-0.04541016,-0.9967041,0.01245117,0,0,0,0,0,0
3.139997,0,0,-0.1983112,-0.02203458,0,0,0,0,0,0,0,0,0,0,0,0,0,0,0,0,0,-0.04528809,-0.9705811,0.009765625,0,0,0,0,0,0
3.143331,0,0,-0.2446432,-0.02957226,0,0,0,0,0,0,0,0,0,0,0,0,0,0,0,0,0,-0.04089355,-0.9614258,0.009887695,0,0,0,0,0,0
3.146664,0,0,-0.2909479,-0.03744874,0,0,0,0,0,0,0,0,0,0,0,0,0,0,0,0,0,-0.04101563,-0.9765625,0.01538086,0,0,0,0,0,0
3.149997,0,0,-0.3372297,-0.04557158,0,0,0,0,0,0,0,0,0,0,0,0,0,0,-0.0006920377,0.000922717,-0.01799298,-0.03271484,-0.9941406,0.003295898,0,0,0,0,0,0
3.153331,0,0,-0.3926652,-0.0542708,0,0,0,0,0,0,0,0,0,0,0,0,0,0,0.001999247,-0.001499435,-0.01924275,-0.02539063,-1.018677,-0.01879883,0,0,0,0,0,0
3.156664,0,0,-0.4392991,-0.06936301,0,0,0,0,0,0,0,0,0,0,0,0,0,0,0.001749341,-0.005997742,-0.01799322,-0.01867676,-1.025269,-0.03283691,0,0,0,0,0,0
3.159997,0,0,-0.4392991,-0.06936301,0,0,0,0,0,0,0,0,0,0,0,0,0,0,0,0,0,-0.01867676,-1.025269,-0.03283691,0,0,0,0,0,0
3.163331,0,0,-0.4855149,-0.07808981,0,0,0,0,0,0,0,0,0,0,0,0,0,0,0,0,0,-0.02404785,-1.024292,-0.02612305,0,0,0,0,0,0
3.166664,0,0,-0.5412569,-0.09428346,0,0,0,0,0,0,0,0,0,0,0,0,0,0,0,0,0,-0.02392578,-1.022705,-0.02832031,0,0,0,0,0,0
3.169997,0,0,-0.5969664,-0.1108141,0,0,0,0,0,0,0,0,0,0,0,0,0,0,0,0,0,-0.01379395,-1.023682,-0.03161621,0,0,0,0,0,0
3.173331,0,0,-0.6431278,-0.1199052,0,0,0,0,0,0,0,0,0,0,0,0,0,0,0,0,0,-0.007446289,-1.029663,-0.02636719,0,0,0,0,0,0
3.176664,0,0,-0.6892866,-0.1290109,0,0,0,0,0,0,0,0,0,0,0,0,0,0,0,0,0,-0.004760742,-1.022339,-0.008544922,0,0,0,0,0,0
3.179997,0,0,-0.7262768,-0.1378064,0,0,0,0,0,0,0,0,0,0,0,0,0,0,0,0,0,-0.003662109,-1.019897,0.0008544922,0,0,0,0,0,0
3.183331,0,0,-0.7629524,-0.1390603,0,0,0,0,0,0,0,0,0,0,0,0,0,0,0,0,0,0.001586914,-1.026489,0.0002441406,0,0,0,0,0,0
3.186664,0,0,-0.8091141,-0.1481477,0,0,0,0,0,0,0,0,0,0,0,0,0,0,-0.005498378,-0.01549543,-0.01299617,-0.0007324219,-1.022583,0.003295898,0,0,0,0,0,0
3.189997,0,0,-0.8369236,-0.1566843,0,0,0,0,0,0,0,0,0,0,0,0,0,0,-0.003748589,-0.01449454,-0.01174558,-0.009521484,-1.013794,0.02319336,0,0,0,0,0,0
3.193331,0,0,-0.8552735,-0.1572476,0,0,0,0,0,0,0,0,0,0,0,0,0,0,0.001845271,-0.01084097,-0.01199426,-0.002929688,-0.9720459,0.06604004,0,0,0,0,0,0
3.196664,0,0,-0.8922536,-0.1660905,0,0,0,0,0,0,0,0,0,0,0,0,0,0,0.007747083,-0.0124953,-0.01499435,-0.003540039,-0.9941406,0.0002441406,0,0,0,0,0,0
3.199997,0,0,-0.9200526,-0.1746935,0,0,0,0,0,0,0,0,0,0,0,0,0,0,0.007497177,-0.01499435,-0.01574407,-0.005615234,-1.012573,-0.01794434,0,0,0,0,0,0
3.203331,0,0,-0.9478477,-0.1833286,0,0,0,0,0,0,0,0,0,0,0,0,0,0,0.00549793,-0.01724351,-0.01499435,-0.02233887,-1.016968,-0.01525879,0,0,0,0,0,0
3.206664,0,0,-0.9478477,-0.1833286,0,0,0,0,0,0,0,0,0,0,0,0,0,0,0,0,0,-0.02233887,-1.016968,-0.01525879,0,0,0,0,0,0
3.209997,0,0,-0.9664643,-0.1917277,0,0,0,0,0,0,0,0,0,0,0,0,0,0,0,0,0,-0.02978516,-1.036621,-0.00402832,0,0,0,0,0,0
3.213331,0,0,-0.9942525,-0.2004224,0,0,0,0,0,0,0,0,0,0,0,0,0,0,0,0,0,-0.0291748,-1.040527,0.00378418,0,0,0,0,0,0
3.216664,0,0,-1,-0.2086106,0,0,0,0,0,0,0,0,0,0,0,0,0,0,0,0,0,-0.03381348,-1.040649,0.03027344,0,0,0,0,0,0
3.219997,0,0,-1,-0.2165419,0,0,0,0,0,0,0,0,0,0,0,0,0,0,0,0,0,-0.02600098,-1.035889,0.06408691,0,0,0,0,0,0
3.22333,0,0,-1,-0.2165419,0,0,0,0,0,0,0,0,0,0,0,0,0,0,0,0,0,-0.0135498,-1.044556,0.05310059,0,0,0,0,0,0
3.226664,0,0,-1,-0.2165419,0,0,0,0,0,0,0,0,0,0,0,0,0,0,0,0,0,0.001586914,-1.063232,0.02416992,0,0,0,0,0,0
3.229997,0,0,-1,-0.2165419,0,0,0,0,0,0,0,0,0,0,0,0,0,0,0,0,0,-0.00793457,-1.056396,0.0201416,0,0,0,0,0,0
3.23333,0,0,-1,-0.2165419,0,0,0,0,0,0,0,0,0,0,0,0,0,0,0,0,0,-0.02185059,-1.039917,0.01879883,0,0,0,0,0,0
3.236664,0,0,-1,-0.2165419,0,0,0,0,0,0,0,0,0,0,0,0,0,0,0,-0.0009996236,0.007747083,-0.0291748,-1.025879,0.01208496,0,0,0,0,0,0
3.239997,0,0,-1,-0.2165419,0,0,0,0,0,0,0,0,0,0,0,0,0,0,0,0.0004998118,0.006997366,-0.03356934,-1.025513,0.01330566,0,0,0,0,0,0
3.24333,0,0,-1,-0.2165419,0,0,0,0,0,0,0,0,0,0,0,0,0,0,0,0,0,-0.03356934,-1.025513,0.01330566,0,0,0,0,0,0
3.246664,0,0,-1,-0.2165419,0,0,0,0,0,0,0,0,0,0,0,0,0,0,0,0,0,-0.03186035,-1.024536,0.01757813,0,0,0,0,0,0
3.249997,0,0,-1,-0.2165419,0,0,0,0,0,0,0,0,0,0,0,0,0,0,0,0,0,-0.03112793,-1.020386,0.02050781,0,0,0,0,0,0
3.25333,0,0,-1,-0.2165419,0,0,0,0,0,0,0,0,0,0,0,0,0,0,0,0,0,-0.02734375,-1.016968,0.01611328,0,0,0,0,0,0
3.256664,0,0,-1,-0.2165419,0,0,0,0,0,0,0,0,0,0,0,0,0,0,0,0,0,-0.02624512,-1.013794,0.01025391,0,0,0,0,0,0
3.259997,0,0,-1,-0.2165419,0,0,0,0,0,0,0,0,0,0,0,0,0,0,0,0,0,-0.02844238,-1.003418,0.01013184,0,0,0,0,0,0
3.26333,0,0,-1,-0.2165419,0,0,0,0,0,0,0,0,0,0,0,0,0,0,0,0,0,-0.02575684,-0.9984131,0.01062012,0,0,0,0,0,0
3.266664,0,0,-1,-0.2165419,0,0,0,0,0,0,0,0,0,0,0,0,0,0,0,0,0,-0.02368164,-1.004517,0.005249023,0,0,0,0,0,0
3.269997,0,0,-1,-0.2165419,0,0,0,0,0,0,0,0,0,0,0,0,0,0,0,0,0,-0.02502441,-1.016235,-0.001098633,0,0,0,0,0,0
3.27333,0,0,-1,-0.2165419,0,0,0,0,0,0,0,0,0,0,0,0,0,0,0.004498306,0.002249153,0.003498683,-0.02392578,-1.027466,0,0,0,0,0,0,0
3.276664,0,0,-1,-0.2165419,0,0,0,0,0,0,0,0,0,0,0,0,0,0,0.003498398,0.001749199,0.00449794,-0.0246582,-1.033325,0.005859375,0,0,0,0,0,0
3.279997,0,0,-1,-0.2165419,0,0,0,0,0,0,0,0,0,0,0,0,0,0,0.0004998118,0.001749341,0.005997742,-0.02111816,-1.037964,0.01220703,0,0,0,0,0,0
3.28333,0,0,-1,-0.2165419,0,0,0,0,0,0,0,0,0,0,0,0,0,0,-0.001845434,0.002076113,0.006459019,-0.0189209,-1.04187,0.01074219,0,0,0,0,0,0
3.286664,0,0,-1,-0.2165419,0,0,0,0,0,0,0,0,0,0,0,0,0,0,-0.004498306,0.001749341,0.007497177,-0.02160645,-1.038574,0.01269531,0,0,0,0,0,0
3.289997,0,0,-1,-0.2165419,0,0,0,0,0,0,0,0,0,0,0,0,0,0,-0.005747836,0.002249153,0.007497177,-0.02233887,-1.034546,0.01403809,0,0,0,0,0,0
3.29333,0,0,-1,-0.2165419,0,0,0,0,0,0,0,0,0,0,0,0,0,0,0,0,0,-0.02233887,-1.034546,0.01403809,0,0,0,0,0,0
3.296664,0,0,-1,-0.2165419,0,0,0,0,0,0,0,0,0,0,0,0,0,0,0,0,0,-0.01672363,-1.03186,0.01293945,0,0,0,0,0,0
3.299997,0,0,-1,-0.2165419,0,0,0,0,0,0,0,0,0,0,0,0,0,0,0,0,0,-0.01318359,-1.031738,0.01062012,0,0,0,0,0,0
3.30333,0,0,-1,-0.2165419,0,0,0,0,0,0,0,0,0,0,0,0,0,0,0,0,0,-0.01367188,-1.039063,0.01330566,0,0,0,0,0,0
3.306664,0,0,-1,-0.2165419,0,0,0,0,0,0,0,0,0,0,0,0,0,0,0,0,0,-0.01501465,-1.039429,0.01220703,0,0,0,0,0,0
3.309997,0,0,-1,-0.2165419,0,0,0,0,0,0,0,0,0,0,0,0,0,0,0,0,0,-0.01599121,-1.04126,0.01208496,0,0,0,0,0,0
3.31333,0,0,-1,-0.2165419,0,0,0,0,0,0,0,0,0,0,0,0,0,0,0,0,0,-0.01550293,-1.051025,0.004516602,0,0,0,0,0,0
3.316664,0,0,-1,-0.2165419,0,0,0,0,0,0,0,0,0,0,0,0,0,0,0,0,0,-0.01611328,-1.054932,0.004638672,0,0,0,0,0,0
3.319997,0,0,-1,-0.2165419,0,0,0,0,0,0,0,0,0,0,0,0,0,0,0,0,0,-0.01660156,-1.047363,0.005737305,0,0,0,0,0,0
3.32333,0,0,-1,-0.2165419,0,0,0,0,0,0,0,0,0,0,0,0,0,0,-0.0209921,0.003248777,0.01299511,-0.01098633,-1.035767,-0.003417969,0,0,0,0,0,0
3.326664,0,0,-1,-0.2165419,0,0,0,0,0,0,0,0,0,0,0,0,0,0,-0.01914638,0.002768151,0.01153396,-0.01000977,-1.024536,-0.01171875,0,0,0,0,0,0
3.329997,0,0,-1,-0.2165419,0,0,0,0,0,0,0,0,0,0,0,0,0,0,-0.01849755,0.002749636,0.01324825,-0.01098633,-1.013428,-0.01989746,0,0,0,0,0,0
3.33333,0,0,-1,-0.2165419,0,0,0,0,0,0,0,0,0,0,0,0,0,0,-0.01449454,0.002249153,0.01374483,-0.01416016,-1.007568,-0.01806641,0,0,0,0,0,0
3.336664,0,0,-1,-0.2165419,0,0,0,0,0,0,0,0,0,0,0,0,0,0,-0.009686819,0.002075747,0.01337704,-0.01464844,-1.008667,-0.01550293,0,0,0,0,0,0
3.339997,0,0,-1,-0.2165419,0,0,0,0,0,0,0,0,0,0,0,0,0,0,0,0,0,-0.01464844,-1.008667,-0.01550293,0,0,0,0,0,0
3.34333,0,0,-1,-0.2165419,0,0,0,0,0,0,0,0,0,0,0,0,0,0,0,0,0,-0.01513672,-1.017456,-0.00769043,0,0,0,0,0,0
3.346664,0,0,-0.976185,-0.2077823,0,0,0,0,0,0,0,0,0,0,0,0,0,0,0,0,0,-0.01733398,-1.029419,0.001342773,0,0,0,0,0,0
3.349997,0,0,-0.9481186,-0.1911844,0,0,0,0,0,0,0,0,0,0,0,0,0,0,0,0,0,-0.01916504,-1.040039,0.003662109,0,0,0,0,0,0
3.35333,0,0,-0.9292295,-0.1749595,0,0,0,0,0,0,0,0,0,0,0,0,0,0,0,0,0,-0.02404785,-1.04248,0.006347656,0,0,0,0,0,0
3.356664,0,0,-0.891989,-0.1583184,0,0,0,0,0,0,0,0,0,0,0,0,0,0,0,0,0,-0.02233887,-1.035034,0.008056641,0,0,0,0,0,0
3.359997,0,0,-0.8547445,-0.1418186,0,0,0,0,0,0,0,0,0,0,0,0,0,0,0,0,0,-0.0255127,-1.031372,0.01171875,0,0,0,0,0,0
3.36333,0,0,-0.8266886,-0.1257176,0,0,0,0,0,0,0,0,0,0,0,0,0,0,-0.0002499059,0.005248024,0.03123824,-0.02575684,-1.026001,0.01135254,0,0,0,0,0,0
3.366664,0,0,-0.780029,-0.1017429,0,0,0,0,0,0,0,0,0,0,0,0,0,0,0,0.005074943,0.03021898,-0.02404785,-1.021362,0.01281738,0,0,0,0,0,0
3.369997,0,0,-0.780029,-0.1017429,0,0,0,0,0,0,0,0,0,0,0,0,0,0,0,0,0,-0.02404785,-1.021362,0.01281738,0,0,0,0,0,0
3.37333,0,0,-0.7334048,-0.07818021,0,0,0,0,0,0,0,0,0,0,0,0,0,0,0,0,0,-0.03381348,-1.001587,0.05187988,0,0,0,0,0,0
3.376664,0,0,-0.6868395,-0.05509408,0,0,0,0,0,0,0,0,0,0,0,0,0,0,0,0,0,-0.03271484,-0.9921875,0.02856445,0,0,0,0,0,0
3.379997,0,0,-0.6403661,-0.03256099,0,0,0,0,0,0,0,0,0,0,0,0,0,0,0.008304453,0.009457849,0.02814287,-0.0345459,-1.02478,0.01635742,0,0,0,0,0,0
3.38333,0,0,-0.4661264,0.05700827,0,0,0,0,0,0,0,0,0,0,0,0,0,0,-0.005766981,0.008765811,0.03091102,-0.03662109,-1.023926,-0.0004882813,0,0,0,0,0,0
3.386664,0,0,-0.4036576,0.08073153,0,0,0,0,0,0,0,0,0,0,0,0,0,0,-0.007996988,0.009246519,0.03323749,-0.03967285,-1.008789,-0.003051758,0,0,0,0,0,0
3.389997,0,0,-0.3504066,0.08992736,0,0,0,0,0,0,0,0,0,0,0,0,0,0,-0.009996235,0.009496424,0.03198795,-0.04443359,-1.005127,0.008789063,0,0,0,0,0,0
3.39333,0,0,-0.2972717,0.09124179,0,0,0,0,0,0,0,0,0,0,0,0,0,0,-0.01176464,0.009457849,0.02791219,-0.0435791,-1.011108,0.02478027,0,0,0,0,0,0
3.396664,0,0,-0.262755,0.09323563,0,0,0,0,0,0,0,0,0,0,0,0,0,0,-0.01599398,0.01199548,0.02798946,-0.04394531,-1.015503,0.05041504,0,0,0,0,0,0
3.399997,0,0,-0.262755,0.09323563,0,0,0,0,0,0,0,0,0,0,0,0,0,0,0,0,0,-0.04394531,-1.015503,0.05041504,0,0,0,0,0,0
3.40333,0,0,-0.2189449,0.08705039,0,0,0,0,0,0,0,0,0,0,0,0,0,0,0,0,0,-0.05737305,-1.024048,0.1114502,0,0,0,0,0,0
3.406664,0,0,-0.1844946,0.08117762,0,0,0,0,0,0,0,0,0,0,0,0,0,0,0,0,0,-0.06713867,-1.021606,0.1320801,0,0,0,0,0,0
3.409997,0,0,-0.1675367,0.07786916,0,0,0,0,0,0,0,0,0,0,0,0,0,0,0,0,0,-0.05847168,-1.002197,0.1062012,0,0,0,0,0,0
3.41333,0,0,-0.1425317,0.07236225,0,0,0,0,0,0,0,0,0,0,0,0,0,0,0,0,0,0.001464844,-0.9335938,-0.07507324,0,0,0,0,0,0
3.416664,0,0,-0.1204287,0.07144073,0,0,0,0,0,0,0,0,0,1,0,0,0,0,0,0,0,-0.03613281,-0.9953613,0.09484863,0,0,0,0,0,0
3.419997,0,0,-0.1024263,0.06145577,0,0,0,0,0,0,0,0,0,1,0,0,0,0,0,0,0,-0.1091309,-1.014648,0.234375,0,0,0,0,0,0
3.42333,0,0,-0.08979177,0.0616218,0,0,0,0,0,0,0,0,0,1,0,0,0,0,0,0,0,-0.0177002,-0.9604492,-0.04992676,0,0,0,0,0,0
3.426664,0,0,-0.07969568,0.0536726,0,0,0,0,0,0,0,0,0,1,0,0,0,0,0,0,0,-0.02429199,-0.9812012,-0.06750488,0,0,0,0,0,0
3.429997,0,0,-0.06831501,0.05313389,0,0,0,0,0,0,0,0,0,1,0,0,0,0,-0.03848551,0.0252405,0.01024614,-0.02075195,-0.9931641,0.006835938,0,0,0,0,0,0
3.43333,0,0,-0.04521557,0.03825933,0,0,0,0,0,0,0,0,0,1,0,0,0,0,-0.03436514,0.01960428,0.008533627,0.002929688,-0.9776611,-0.08093262,0,0,0,0,0,0
3.436664,0,0,-0.04521557,0.03825933,0,0,0,0,0,0,0,0,0,1,0,0,0,0,0,0,0,0.002929688,-0.9776611,-0.08093262,0,0,0,0,0,0
